path,duration,is_repeat,thisN,thisTrialN,thisRepN,movie_id,target_img,lure_img,resp.keys,resp.corr,resp.rt,resp.duration,conf_radio.response,conf_radio.rt,movie.thisRepN,movie.thisTrialN,movie.thisN,movie.thisIndex,recogloop.thisRepN,recogloop.thisTrialN,recogloop.thisN,recogloop.thisIndex,thisRow.t,notes,age,gender,handedness,vision,caffeine_2h,alcohol_smoke_12h,demographics.started,demographics.stopped,Instructions.started,text1.started,key_resp.started,Instructions.stopped,key_resp.keys,key_resp.rt,key_resp.duration,instruction_2.started,text2.started,key_resp_2.started,instruction_2.stopped,key_resp_2.keys,key_resp_2.rt,key_resp_2.duration,Videos.started,movie_2.started,vigilance_resp.started,movie_2.stopped,Videos.stopped,movie.vigilance_resp.keys,vigilance_pressed,vigilance_correct,ISI.started,text.started,ISI.stopped,movie.vigilance_resp.rt,movie.vigilance_resp.duration,text.stopped,recognition.started,text_4.started,key_resp_3.started,recognition.stopped,key_resp_3.keys,key_resp_3.rt,key_resp_3.duration,recognition_task.started,leftimage.started,rightimage.started,resp.started,frames_question.started,right_label.started,left_label.started,recognition_task.stopped,recogloop.resp.keys,recogloop.resp.corr,recogloop.resp.rt,recogloop.resp.duration,confidence.started,conf_text.started,conf_radio.started,conf_label.started,confidence.stopped,recogloop.conf_radio.response,recogloop.conf_radio.rt,confidence,confidence_rt,thank_you.started,text_6.started,key_resp_4.started,thank_you.stopped,key_resp_4.keys,participant,session,date,expName,expVersion,psychopyVersion,frameRate,expStart,...103
,,,,,,,,,,,,,,,,,,,,,,,,,23,Male,Right handed,Normal,Caffeine consumed in last 2 hours?,Alcohol or smoking in last 12 hours?,0.0037251000030664727,0.006148400003439747,,,,,,,,,,,,,,,,,,,,,,,,,,,,,,,,,,,,,,,,,,,,,,,,,,,,,,,,,,,,,,sub134_AB,001,2026-02-02_18h32.45.846,recognitionstage,,2025.1.1,60.39792569317332,2026-02-02 18h33.51.502168 +0530,
,,,,,,,,,,,,,,,,,,,,,,,,,23,Male,Right handed,Normal,,,,,0.006169000000227243,0.022825099993497133,0.022825099993497133,13.725668900005985,space,13.695947399988654,None,,,,,,,,,,,,,,,,,,,,,,,,,,,,,,,,,,,,,,,,,,,,,,,,,,,,,,,sub134_AB,001,2026-02-02_18h32.45.846,recognitionstage,,2025.1.1,60.39792569317332,2026-02-02 18h33.51.502168 +0530,
,,,,,,,,,,,,,,,,,,,,,,,,,23,Male,Right handed,Normal,,,,,,,,,,,,13.725740399997449,13.740778699997463,13.740778699997463,25.992683799995575,space,12.249583600001642,None,,,,,,,,,,,,,,,,,,,,,,,,,,,,,,,,,,,,,,,,,,,,,,,,sub134_AB,001,2026-02-02_18h32.45.846,recognitionstage,,2025.1.1,60.39792569317332,2026-02-02 18h33.51.502168 +0530,
abrupt_videos\abrupt_23.mp4,24,0,44,44,0,,,,,,,,,,0,44,44,25,,,,,1525.4216498000023,,23,Male,Right handed,Normal,,,,,,,,,,,,,,,,,,,1525.363396700006,1525.4216498000023,1525.4216498000023,1549.9210924999934,1549.7656806000014,None,0,1,1549.9021517999936,1549.9210924999934,1552.4068331000017,9.573323799995705,None,1525.4216498000023,1552.4069101999921,1552.4225600999926,1552.4225600999926,1579.9894809999969,space,27.559670300004655,None,,,,,,,,,,,,,,,,,,,,,,,,,,,sub134_AB,001,2026-02-02_18h32.45.846,recognitionstage,,2025.1.1,60.39792569317332,2026-02-02 18h33.51.502168 +0530,
,,,0,0,0,29,frames\Vid29_BB_T.png,frames\Vid29_L.png,['r'],1,[5.76933559999452],[None],4,5.814632199995685,,,,,0,0,0,28,1580.020547799999,,23,Male,Right handed,Normal,,,,,,,,,,,,,,,,,,,,,,,,,,,,,,,,,,,,,,,,1580.0069228999928,1580.020547799999,1580.020547799999,1580.020547799999,1580.020547799999,1580.020547799999,1580.020547799999,1585.7907401999983,['r'],1,[5.76933559999452],[None],1585.7919354000041,1585.8198271,1585.8198271,1585.8198271,1591.6222423,4,5.814632199995685,4,5.814632199995685,,,,,,sub134_AB,001,2026-02-02_18h32.45.846,recognitionstage,,2025.1.1,60.39792569317332,2026-02-02 18h33.51.502168 +0530,
,,,1,1,0,3,frames\Vid3_BB_T.png,frames\Vid3_L.png,['r'],1,[6.911082899998291],[None],5,2.4638299999933224,,,,,0,1,1,2,1591.6708827999973,,23,Male,Right handed,Normal,,,,,,,,,,,,,,,,,,,,,,,,,,,,,,,,,,,,,,,,1591.6645108999946,1591.6708827999973,1591.6708827999973,1591.6708827999973,1591.6708827999973,1591.6708827999973,1591.6708827999973,1598.591635299992,['r'],1,[6.911082899998291],[None],1598.5927228999935,1598.6051594000019,1598.6051594000019,1598.6051594000019,1601.0725145000033,5,2.4638299999933224,5,2.4638299999933224,,,,,,sub134_AB,001,2026-02-02_18h32.45.846,recognitionstage,,2025.1.1,60.39792569317332,2026-02-02 18h33.51.502168 +0530,
,,,2,2,0,26,frames\Vid26_EM_T.png,frames\Vid26_L.png,['l'],1,[6.582060000000638],[None],5,1.2971672999992734,,,,,0,2,2,25,1601.1039740999986,,23,Male,Right handed,Normal,,,,,,,,,,,,,,,,,,,,,,,,,,,,,,,,,,,,,,,,1601.0970002999966,1601.1039740999986,1601.1039740999986,1601.1039740999986,1601.1039740999986,1601.1039740999986,1601.1039740999986,1607.6916404999938,['l'],1,[6.582060000000638],[None],1607.692711900003,1607.7201286000054,1607.7201286000054,1607.7201286000054,1609.0061981000035,5,1.2971672999992734,5,1.2971672999992734,,,,,,sub134_AB,001,2026-02-02_18h32.45.846,recognitionstage,,2025.1.1,60.39792569317332,2026-02-02 18h33.51.502168 +0530,
,,,3,3,0,28,frames\Vid28_EM_T.png,frames\Vid28_L.png,['r'],1,[4.614173299996764],[None],5,0.9147221000021091,,,,,0,3,3,27,1609.023676900004,,23,Male,Right handed,Normal,,,,,,,,,,,,,,,,,,,,,,,,,,,,,,,,,,,,,,,,1609.016226199994,1609.023676900004,1609.023676900004,1609.023676900004,1609.023676900004,1609.023676900004,1609.023676900004,1613.6406750000024,['r'],1,[4.614173299996764],[None],1613.6414317000017,1613.6551760000002,1613.6551760000002,1613.6551760000002,1614.5727928999986,5,0.9147221000021091,5,0.9147221000021091,,,,,,sub134_AB,001,2026-02-02_18h32.45.846,recognitionstage,,2025.1.1,60.39792569317332,2026-02-02 18h33.51.502168 +0530,
,,,4,4,0,16,frames\Vid16_EM_T.png,frames\Vid16_L.png,['l'],0,[6.751159899999038],[None],4,2.149042200006079,,,,,0,4,4,15,1614.6226049999968,,23,Male,Right handed,Normal,,,,,,,,,,,,,,,,,,,,,,,,,,,,,,,,,,,,,,,,1614.612890000004,1614.6226049999968,1614.6226049999968,1614.6226049999968,1614.6226049999968,1614.6226049999968,1614.6226049999968,1621.389908199999,['l'],0,[6.751159899999038],[None],1621.3908078999957,1621.4054660999973,1621.4054660999973,1621.4054660999973,1623.5557783999975,4,2.149042200006079,4,2.149042200006079,,,,,,sub134_AB,001,2026-02-02_18h32.45.846,recognitionstage,,2025.1.1,60.39792569317332,2026-02-02 18h33.51.502168 +0530,
,,,5,5,0,13,frames\Vid13_BB_T.png,frames\Vid13_L.png,['l'],1,[4.013237100007245],[None],5,1.6148335999896517,,,,,0,5,5,12,1623.6086785999942,,23,Male,Right handed,Normal,,,,,,,,,,,,,,,,,,,,,,,,,,,,,,,,,,,,,,,,1623.5893629999919,1623.6086785999942,1623.6086785999942,1623.6086785999942,1623.6086785999942,1623.6086785999942,1623.6086785999942,1627.6244510999968,['l'],1,[4.013237100007245],[None],1627.6252443999983,1627.6383563999989,1627.6383563999989,1627.6383563999989,1629.2560559999984,5,1.6148335999896517,5,1.6148335999896517,,,,,,sub134_AB,001,2026-02-02_18h32.45.846,recognitionstage,,2025.1.1,60.39792569317332,2026-02-02 18h33.51.502168 +0530,
,,,6,6,0,19,frames\Vid19_BB_T.png,frames\Vid19_L.png,['l'],0,[6.067050600002403],[None],3,2.60037509999529,,,,,0,6,6,18,1629.2907494999963,,23,Male,Right handed,Normal,,,,,,,,,,,,,,,,,,,,,,,,,,,,,,,,,,,,,,,,1629.2667311999976,1629.2907494999963,1629.2907494999963,1629.2907494999963,1629.2907494999963,1629.2907494999963,1629.2907494999963,1635.372941900001,['l'],0,[6.067050600002403],[None],1635.373451099993,1635.3884803999972,1635.3884803999972,1635.3884803999972,1637.9890263999987,3,2.60037509999529,3,2.60037509999529,,,,,,sub134_AB,001,2026-02-02_18h32.45.846,recognitionstage,,2025.1.1,60.39792569317332,2026-02-02 18h33.51.502168 +0530,
,,,7,7,0,27,frames\Vid27_BB_T.png,frames\Vid27_L.png,['l'],1,[4.9185067000071285],[None],4,2.2306056000088574,,,,,0,7,7,26,1638.0073087000055,,23,Male,Right handed,Normal,,,,,,,,,,,,,,,,,,,,,,,,,,,,,,,,,,,,,,,,1637.9974261000025,1638.0073087000055,1638.0073087000055,1638.0073087000055,1638.0073087000055,1638.0073087000055,1638.0073087000055,1642.9417637000006,['l'],1,[4.9185067000071285],[None],1642.9429673999985,1642.954982700001,1642.954982700001,1642.954982700001,1645.188842100004,4,2.2306056000088574,4,2.2306056000088574,,,,,,sub134_AB,001,2026-02-02_18h32.45.846,recognitionstage,,2025.1.1,60.39792569317332,2026-02-02 18h33.51.502168 +0530,
,,,8,8,0,38,frames\Vid38_EM_T.png,frames\Vid38_L.png,['r'],1,[12.06285490001028],[None],2,1.7155826999951387,,,,,0,8,8,37,1645.2070624000044,,23,Male,Right handed,Normal,,,,,,,,,,,,,,,,,,,,,,,,,,,,,,,,,,,,,,,,1645.1975125000026,1645.2070624000044,1645.2070624000044,1645.2070624000044,1645.2070624000044,1645.2070624000044,1645.2070624000044,1657.2736279999954,['r'],1,[12.06285490001028],[None],1657.2742621999932,1657.288627300004,1657.288627300004,1657.288627300004,1659.0066607000044,2,1.7155826999951387,2,1.7155826999951387,,,,,,sub134_AB,001,2026-02-02_18h32.45.846,recognitionstage,,2025.1.1,60.39792569317332,2026-02-02 18h33.51.502168 +0530,
,,,9,9,0,20,frames\Vid20_EM_T.png,frames\Vid20_L.png,['r'],1,[4.318297600009828],[None],5,1.3822648000059417,,,,,0,9,9,19,1659.0235950999922,,23,Male,Right handed,Normal,,,,,,,,,,,,,,,,,,,,,,,,,,,,,,,,,,,,,,,,1659.0137429000024,1659.0235950999922,1659.0235950999922,1659.0235950999922,1659.0235950999922,1659.0235950999922,1659.0235950999922,1663.3572971999965,['r'],1,[4.318297600009828],[None],1663.3582072999998,1663.372237100004,1663.372237100004,1663.372237100004,1664.7560169999924,5,1.3822648000059417,5,1.3822648000059417,,,,,,sub134_AB,001,2026-02-02_18h32.45.846,recognitionstage,,2025.1.1,60.39792569317332,2026-02-02 18h33.51.502168 +0530,
,,,10,10,0,5,frames\Vid5_EM_T.png,frames\Vid5_L.png,['r'],1,[7.472390399998403],[None],2,1.9643425999965984,,,,,0,10,10,4,1664.8053887999995,,23,Male,Right handed,Normal,,,,,,,,,,,,,,,,,,,,,,,,,,,,,,,,,,,,,,,,1664.7874769000045,1664.8053887999995,1664.8053887999995,1664.8053887999995,1664.8053887999995,1664.8053887999995,1664.8053887999995,1672.291567399996,['r'],1,[7.472390399998403],[None],1672.2927377000015,1672.3054886000027,1672.3054886000027,1672.3054886000027,1674.2728738000005,2,1.9643425999965984,2,1.9643425999965984,,,,,,sub134_AB,001,2026-02-02_18h32.45.846,recognitionstage,,2025.1.1,60.39792569317332,2026-02-02 18h33.51.502168 +0530,
,,,11,11,0,33,frames\Vid33_BB_T.png,frames\Vid33_L.png,['r'],1,[3.042944599990733],[None],5,1.5810441999929026,,,,,0,11,11,32,1674.3069429000025,,23,Male,Right handed,Normal,,,,,,,,,,,,,,,,,,,,,,,,,,,,,,,,,,,,,,,,1674.283235099996,1674.3069429000025,1674.3069429000025,1674.3069429000025,1674.3069429000025,1674.3069429000025,1674.3069429000025,1677.3582140999933,['r'],1,[3.042944599990733],[None],1677.3593454999937,1677.3872249999986,1677.3872249999986,1677.3872249999986,1678.955762700003,5,1.5810441999929026,5,1.5810441999929026,,,,,,sub134_AB,001,2026-02-02_18h32.45.846,recognitionstage,,2025.1.1,60.39792569317332,2026-02-02 18h33.51.502168 +0530,
,,,12,12,0,32,frames\Vid32_EM_T.png,frames\Vid32_L.png,['r'],1,[4.073271700006444],[None],5,1.631493099994259,,,,,0,12,12,31,1678.9884848999936,,23,Male,Right handed,Normal,,,,,,,,,,,,,,,,,,,,,,,,,,,,,,,,,,,,,,,,1678.9670867999957,1678.9884848999936,1678.9884848999936,1678.9884848999936,1678.9884848999936,1678.9884848999936,1678.9884848999936,1683.0742063999933,['r'],1,[4.073271700006444],[None],1683.0750170999963,1683.0885304999974,1683.0885304999974,1683.0885304999974,1684.7232744999928,5,1.631493099994259,5,1.631493099994259,,,,,,sub134_AB,001,2026-02-02_18h32.45.846,recognitionstage,,2025.1.1,60.39792569317332,2026-02-02 18h33.51.502168 +0530,
,,,13,13,0,7,frames\Vid7_EM_T.png,frames\Vid7_L.png,['r'],1,[4.393580699994345],[None],5,1.1142713999870466,,,,,0,13,13,6,1684.7725393,,23,Male,Right handed,Normal,,,,,,,,,,,,,,,,,,,,,,,,,,,,,,,,,,,,,,,,1684.7655586000037,1684.7725393,1684.7725393,1684.7725393,1684.7725393,1684.7725393,1684.7725393,1689.1743391000055,['r'],1,[4.393580699994345],[None],1689.1756482999917,1689.1887972999975,1689.1887972999975,1689.1887972999975,1690.3061999999918,5,1.1142713999870466,5,1.1142713999870466,,,,,,sub134_AB,001,2026-02-02_18h32.45.846,recognitionstage,,2025.1.1,60.39792569317332,2026-02-02 18h33.51.502168 +0530,
,,,14,14,0,8,frames\Vid8_BB_T.png,frames\Vid8_L.png,['r'],0,[4.127503499999875],[None],5,0.597894799997448,,,,,0,14,14,7,1690.358433500005,,23,Male,Right handed,Normal,,,,,,,,,,,,,,,,,,,,,,,,,,,,,,,,,,,,,,,,1690.3450836999982,1690.358433500005,1690.358433500005,1690.358433500005,1690.358433500005,1690.358433500005,1690.358433500005,1694.4904238000017,['r'],0,[4.127503499999875],[None],1694.4914132999984,1694.505379299997,1694.505379299997,1694.505379299997,1695.106913399999,5,0.597894799997448,5,0.597894799997448,,,,,,sub134_AB,001,2026-02-02_18h32.45.846,recognitionstage,,2025.1.1,60.39792569317332,2026-02-02 18h33.51.502168 +0530,
,,,15,15,0,31,frames\Vid31_EM_T.png,frames\Vid31_L.png,['r'],1,[4.463564299992868],[None],5,0.5144729000021471,,,,,0,15,15,30,1695.1262092999968,,23,Male,Right handed,Normal,,,,,,,,,,,,,,,,,,,,,,,,,,,,,,,,,,,,,,,,1695.116223200006,1695.1262092999968,1695.1262092999968,1695.1262092999968,1695.1262092999968,1695.1262092999968,1695.1262092999968,1699.607588400002,['r'],1,[4.463564299992868],[None],1699.608521999995,1699.6215667999932,1699.6215667999932,1699.6215667999932,1700.1401657999959,5,0.5144729000021471,5,0.5144729000021471,,,,,,sub134_AB,001,2026-02-02_18h32.45.846,recognitionstage,,2025.1.1,60.39792569317332,2026-02-02 18h33.51.502168 +0530,
,,,16,16,0,24,frames\Vid24_BB_T.png,frames\Vid24_L.png,['l'],1,[11.962419899995439],[None],4,1.8795386999991024,,,,,0,16,16,23,1700.1718335000041,,23,Male,Right handed,Normal,,,,,,,,,,,,,,,,,,,,,,,,,,,,,,,,,,,,,,,,1700.154603300005,1700.1718335000041,1700.1718335000041,1700.1718335000041,1700.1718335000041,1700.1718335000041,1700.1718335000041,1712.1419040000037,['l'],1,[11.962419899995439],[None],1712.1434038000007,1712.169994900003,1712.169994900003,1712.169994900003,1714.0393324000033,4,1.8795386999991024,4,1.8795386999991024,,,,,,sub134_AB,001,2026-02-02_18h32.45.846,recognitionstage,,2025.1.1,60.39792569317332,2026-02-02 18h33.51.502168 +0530,
,,,17,17,0,36,frames\Vid36_BB_T.png,frames\Vid36_L.png,['l'],0,[6.574164700010442],[None],2,2.614333599995007,,,,,0,17,17,35,1714.071783499996,,23,Male,Right handed,Normal,,,,,,,,,,,,,,,,,,,,,,,,,,,,,,,,,,,,,,,,1714.0519636999961,1714.071783499996,1714.071783499996,1714.071783499996,1714.071783499996,1714.071783499996,1714.071783499996,1720.657613999996,['l'],0,[6.574164700010442],[None],1720.6585113000037,1720.6716412999958,1720.6716412999958,1720.6716412999958,1723.2898423000006,2,2.614333599995007,2,2.614333599995007,,,,,,sub134_AB,001,2026-02-02_18h32.45.846,recognitionstage,,2025.1.1,60.39792569317332,2026-02-02 18h33.51.502168 +0530,
,,,18,18,0,34,frames\Vid34_BB_T.png,frames\Vid34_L.png,['r'],1,[5.036186299999827],[None],5,1.4144201000017347,,,,,0,18,18,33,1723.3217910999956,,23,Male,Right handed,Normal,,,,,,,,,,,,,,,,,,,,,,,,,,,,,,,,,,,,,,,,1723.2997672000056,1723.3217910999956,1723.3217910999956,1723.3217910999956,1723.3217910999956,1723.3217910999956,1723.3217910999956,1728.3739459999924,['r'],1,[5.036186299999827],[None],1728.3748850999982,1728.3883229000057,1728.3883229000057,1728.3883229000057,1729.805866099996,5,1.4144201000017347,5,1.4144201000017347,,,,,,sub134_AB,001,2026-02-02_18h32.45.846,recognitionstage,,2025.1.1,60.39792569317332,2026-02-02 18h33.51.502168 +0530,
,,,19,19,0,18,frames\Vid18_EM_T.png,frames\Vid18_L.png,['l'],1,[3.1431352000072366],[None],5,0.6818110000021989,,,,,0,19,19,17,1729.8386839000013,,23,Male,Right handed,Normal,,,,,,,,,,,,,,,,,,,,,,,,,,,,,,,,,,,,,,,,1729.8167071000062,1729.8386839000013,1729.8386839000013,1729.8386839000013,1729.8386839000013,1729.8386839000013,1729.8386839000013,1732.9905838999985,['l'],1,[3.1431352000072366],[None],1732.9913872000034,1733.0049153,1733.0049153,1733.0049153,1733.6894749000057,5,0.6818110000021989,5,0.6818110000021989,,,,,,sub134_AB,001,2026-02-02_18h32.45.846,recognitionstage,,2025.1.1,60.39792569317332,2026-02-02 18h33.51.502168 +0530,
,,,20,20,0,2,frames\Vid2_BB_T.png,frames\Vid2_L.png,['r'],1,[5.130934000000707],[None],5,0.5308018999930937,,,,,0,20,20,1,1733.7390753999935,,23,Male,Right handed,Normal,,,,,,,,,,,,,,,,,,,,,,,,,,,,,,,,,,,,,,,,1733.7305286000046,1733.7390753999935,1733.7390753999935,1733.7390753999935,1733.7390753999935,1733.7390753999935,1733.7390753999935,1738.874048400001,['r'],1,[5.130934000000707],[None],1738.8752345999965,1738.8887663999922,1738.8887663999922,1738.8887663999922,1739.4229562999972,5,0.5308018999930937,5,0.5308018999930937,,,,,,sub134_AB,001,2026-02-02_18h32.45.846,recognitionstage,,2025.1.1,60.39792569317332,2026-02-02 18h33.51.502168 +0530,
,,,21,21,0,39,frames\Vid39_BB_T.png,frames\Vid39_L.png,['r'],0,[7.058639900002163],[None],5,0.6149155000020983,,,,,0,21,21,38,1739.4433282999962,,23,Male,Right handed,Normal,,,,,,,,,,,,,,,,,,,,,,,,,,,,,,,,,,,,,,,,1739.4308610000007,1739.4433282999962,1739.4433282999962,1739.4433282999962,1739.4433282999962,1739.4433282999962,1739.4433282999962,1746.5072241000016,['r'],0,[7.058639900002163],[None],1746.5085148999933,1746.5220708999987,1746.5220708999987,1746.5220708999987,1747.1396079999977,5,0.6149155000020983,5,0.6149155000020983,,,,,,sub134_AB,001,2026-02-02_18h32.45.846,recognitionstage,,2025.1.1,60.39792569317332,2026-02-02 18h33.51.502168 +0530,
,,,22,22,0,21,frames\Vid21_BB_T.png,frames\Vid21_L.png,['l'],1,[5.818388500003493],[None],5,0.7302896000037435,,,,,0,22,22,20,1747.1715409000026,,23,Male,Right handed,Normal,,,,,,,,,,,,,,,,,,,,,,,,,,,,,,,,,,,,,,,,1747.1543063999998,1747.1715409000026,1747.1715409000026,1747.1715409000026,1747.1715409000026,1747.1715409000026,1747.1715409000026,1752.9919398000056,['l'],1,[5.818388500003493],[None],1752.9931619999988,1753.0049809000047,1753.0049809000047,1753.0049809000047,1753.739413400006,5,0.7302896000037435,5,0.7302896000037435,,,,,,sub134_AB,001,2026-02-02_18h32.45.846,recognitionstage,,2025.1.1,60.39792569317332,2026-02-02 18h33.51.502168 +0530,
,,,23,23,0,11,frames\Vid11_EM_T.png,frames\Vid11_L.png,['l'],1,[2.7921308999939356],[None],5,0.6164924000040628,,,,,0,23,23,10,1753.8057434999937,,23,Male,Right handed,Normal,,,,,,,,,,,,,,,,,,,,,,,,,,,,,,,,,,,,,,,,1753.7829461999936,1753.8057434999937,1753.8057434999937,1753.8057434999937,1753.8057434999937,1753.8057434999937,1753.8057434999937,1756.606366699998,['l'],1,[2.7921308999939356],[None],1756.607064099997,1756.6220943999942,1756.6220943999942,1756.6220943999942,1757.2395814000047,5,0.6164924000040628,5,0.6164924000040628,,,,,,sub134_AB,001,2026-02-02_18h32.45.846,recognitionstage,,2025.1.1,60.39792569317332,2026-02-02 18h33.51.502168 +0530,
,,,24,24,0,10,frames\Vid10_BB_T.png,frames\Vid10_L.png,['l'],1,[2.8822561999986647],[None],5,0.6135159999976167,,,,,0,24,24,9,1757.2917247000005,,23,Male,Right handed,Normal,,,,,,,,,,,,,,,,,,,,,,,,,,,,,,,,,,,,,,,,1757.282377399999,1757.2917247000005,1757.2917247000005,1757.2917247000005,1757.2917247000005,1757.2917247000005,1757.2917247000005,1760.1746184999938,['l'],1,[2.8822561999986647],[None],1760.1757110000035,1760.188410799994,1760.188410799994,1760.188410799994,1760.8068545999995,5,0.6135159999976167,5,0.6135159999976167,,,,,,sub134_AB,001,2026-02-02_18h32.45.846,recognitionstage,,2025.1.1,60.39792569317332,2026-02-02 18h33.51.502168 +0530,
,,,25,25,0,12,frames\Vid12_EM_T.png,frames\Vid12_L.png,['l'],1,[3.9626787999877706],[None],5,0.679589000006672,,,,,0,25,25,11,1760.8756965999928,,23,Male,Right handed,Normal,,,,,,,,,,,,,,,,,,,,,,,,,,,,,,,,,,,,,,,,1760.8540775000001,1760.8756965999928,1760.8756965999928,1760.8756965999928,1760.8756965999928,1760.8756965999928,1760.8756965999928,1764.8423120999942,['l'],1,[3.9626787999877706],[None],1764.8438604999974,1764.8701063000044,1764.8701063000044,1764.8701063000044,1765.5397474000056,5,0.679589000006672,5,0.679589000006672,,,,,,sub134_AB,001,2026-02-02_18h32.45.846,recognitionstage,,2025.1.1,60.39792569317332,2026-02-02 18h33.51.502168 +0530,
,,,26,26,0,37,frames\Vid37_BB_T.png,frames\Vid37_L.png,['r'],1,[3.447189200000139],[None],5,0.5474122999876272,,,,,0,26,26,36,1765.574681099999,,23,Male,Right handed,Normal,,,,,,,,,,,,,,,,,,,,,,,,,,,,,,,,,,,,,,,,1765.5542060000007,1765.574681099999,1765.574681099999,1765.574681099999,1765.574681099999,1765.574681099999,1765.574681099999,1769.024404099997,['r'],1,[3.447189200000139],[None],1769.0252941999934,1769.038655299999,1769.038655299999,1769.038655299999,1769.589304299996,5,0.5474122999876272,5,0.5474122999876272,,,,,,sub134_AB,001,2026-02-02_18h32.45.846,recognitionstage,,2025.1.1,60.39792569317332,2026-02-02 18h33.51.502168 +0530,
,,,27,27,0,9,frames\Vid9_EM_T.png,frames\Vid9_L.png,['r'],0,[5.998808999996982],[None],5,0.4982421000022441,,,,,0,27,27,8,1769.6390868000017,,23,Male,Right handed,Normal,,,,,,,,,,,,,,,,,,,,,,,,,,,,,,,,,,,,,,,,1769.6258528000035,1769.6390868000017,1769.6390868000017,1769.6390868000017,1769.6390868000017,1769.6390868000017,1769.6390868000017,1775.6403499000007,['r'],0,[5.998808999996982],[None],1775.641163799999,1775.6554965999967,1775.6554965999967,1775.6554965999967,1776.1566193000035,5,0.4982421000022441,5,0.4982421000022441,,,,,,sub134_AB,001,2026-02-02_18h32.45.846,recognitionstage,,2025.1.1,60.39792569317332,2026-02-02 18h33.51.502168 +0530,
,,,28,28,0,22,frames\Vid22_EM_T.png,frames\Vid22_L.png,['l'],1,[4.687287100008689],[None],5,0.6154897000087658,,,,,0,28,28,21,1776.1907540999964,,23,Male,Right handed,Normal,,,,,,,,,,,,,,,,,,,,,,,,,,,,,,,,,,,,,,,,1776.1709460999991,1776.1907540999964,1776.1907540999964,1776.1907540999964,1776.1907540999964,1776.1907540999964,1776.1907540999964,1780.8903787000017,['l'],1,[4.687287100008689],[None],1780.8913267000025,1780.9060850999958,1780.9060850999958,1780.9060850999958,1781.5230343000003,5,0.6154897000087658,5,0.6154897000087658,,,,,,sub134_AB,001,2026-02-02_18h32.45.846,recognitionstage,,2025.1.1,60.39792569317332,2026-02-02 18h33.51.502168 +0530,
,,,29,29,0,17,frames\Vid17_BB_T.png,frames\Vid17_L.png,['l'],1,[5.770469099996262],[None],5,0.44881569998688065,,,,,0,29,29,16,1781.555665199994,,23,Male,Right handed,Normal,,,,,,,,,,,,,,,,,,,,,,,,,,,,,,,,,,,,,,,,1781.5492377000046,1781.555665199994,1781.555665199994,1781.555665199994,1781.555665199994,1781.555665199994,1781.555665199994,1787.3404626999982,['l'],1,[5.770469099996262],[None],1787.340988099997,1787.355192899995,1787.355192899995,1787.355192899995,1787.8069779999933,5,0.44881569998688065,5,0.44881569998688065,,,,,,sub134_AB,001,2026-02-02_18h32.45.846,recognitionstage,,2025.1.1,60.39792569317332,2026-02-02 18h33.51.502168 +0530,
,,,30,30,0,23,frames\Vid23_EM_T.png,frames\Vid23_L.png,['r'],1,[3.4929246000101557],[None],4,1.3138049999979557,,,,,0,30,30,22,1787.840963499999,,23,Male,Right handed,Normal,,,,,,,,,,,,,,,,,,,,,,,,,,,,,,,,,,,,,,,,1787.8242585999978,1787.840963499999,1787.840963499999,1787.840963499999,1787.840963499999,1787.840963499999,1787.840963499999,1791.3415110999922,['r'],1,[3.4929246000101557],[None],1791.3427106000017,1791.3555504999968,1791.3555504999968,1791.3555504999968,1792.6728811999928,4,1.3138049999979557,4,1.3138049999979557,,,,,,sub134_AB,001,2026-02-02_18h32.45.846,recognitionstage,,2025.1.1,60.39792569317332,2026-02-02 18h33.51.502168 +0530,
,,,31,31,0,4,frames\Vid4_EM_T.png,frames\Vid4_L.png,['r'],1,[6.305927399997017],[None],3,1.229942799996934,,,,,0,31,31,3,1792.739938300001,,23,Male,Right handed,Normal,,,,,,,,,,,,,,,,,,,,,,,,,,,,,,,,,,,,,,,,1792.7195312999975,1792.739938300001,1792.739938300001,1792.739938300001,1792.739938300001,1792.739938300001,1792.739938300001,1799.0585227999982,['r'],1,[6.305927399997017],[None],1799.059769600004,1799.0867123999924,1799.0867123999924,1799.0867123999924,1800.3068172000058,3,1.229942799996934,3,1.229942799996934,,,,,,sub134_AB,001,2026-02-02_18h32.45.846,recognitionstage,,2025.1.1,60.39792569317332,2026-02-02 18h33.51.502168 +0530,
,,,32,32,0,1,frames\Vid1_EM_T.png,frames\Vid1_L.png,['r'],1,[5.390469799996936],[None],5,1.5806539000041084,,,,,0,32,32,0,1800.3753905000049,,23,Male,Right handed,Normal,,,,,,,,,,,,,,,,,,,,,,,,,,,,,,,,,,,,,,,,1800.352420700001,1800.3753905000049,1800.3753905000049,1800.3753905000049,1800.3753905000049,1800.3753905000049,1800.3753905000049,1805.7744919999968,['r'],1,[5.390469799996936],[None],1805.7758137000055,1805.8038812000013,1805.8038812000013,1805.8038812000013,1807.3723616000061,5,1.5806539000041084,5,1.5806539000041084,,,,,,sub134_AB,001,2026-02-02_18h32.45.846,recognitionstage,,2025.1.1,60.39792569317332,2026-02-02 18h33.51.502168 +0530,
,,,33,33,0,15,frames\Vid15_BB_T.png,frames\Vid15_L.png,['r'],0,[8.531635799998185],[None],4,1.7983204000047408,,,,,0,33,33,14,1807.4422508999996,,23,Male,Right handed,Normal,,,,,,,,,,,,,,,,,,,,,,,,,,,,,,,,,,,,,,,,1807.4188412999938,1807.4422508999996,1807.4422508999996,1807.4422508999996,1807.4422508999996,1807.4422508999996,1807.4422508999996,1815.9907136999973,['r'],0,[8.531635799998185],[None],1815.991527399994,1816.0050582999975,1816.0050582999975,1816.0050582999975,1817.806407199998,4,1.7983204000047408,4,1.7983204000047408,,,,,,sub134_AB,001,2026-02-02_18h32.45.846,recognitionstage,,2025.1.1,60.39792569317332,2026-02-02 18h33.51.502168 +0530,
,,,34,34,0,14,frames\Vid14_BB_T.png,frames\Vid14_L.png,['l'],1,[3.866575699998066],[None],5,0.9638164000061806,,,,,0,34,34,13,1817.8752935999946,,23,Male,Right handed,Normal,,,,,,,,,,,,,,,,,,,,,,,,,,,,,,,,,,,,,,,,1817.8528643000027,1817.8752935999946,1817.8752935999946,1817.8752935999946,1817.8752935999946,1817.8752935999946,1817.8752935999946,1821.7587838000036,['l'],1,[3.866575699998066],[None],1821.7597798999923,1821.7718370999937,1821.7718370999937,1821.7718370999937,1822.7393243999977,5,0.9638164000061806,5,0.9638164000061806,,,,,,sub134_AB,001,2026-02-02_18h32.45.846,recognitionstage,,2025.1.1,60.39792569317332,2026-02-02 18h33.51.502168 +0530,
,,,35,35,0,35,frames\Vid35_EM_T.png,frames\Vid35_L.png,['r'],1,[4.165927599999122],[None],5,0.6144965000130469,,,,,0,35,35,34,1822.7598462000024,,23,Male,Right handed,Normal,,,,,,,,,,,,,,,,,,,,,,,,,,,,,,,,,,,,,,,,1822.7478408000025,1822.7598462000024,1822.7598462000024,1822.7598462000024,1822.7598462000024,1822.7598462000024,1822.7598462000024,1826.940513499998,['r'],1,[4.165927599999122],[None],1826.9417254,1826.955297099994,1826.955297099994,1826.955297099994,1827.572317099999,5,0.6144965000130469,5,0.6144965000130469,,,,,,sub134_AB,001,2026-02-02_18h32.45.846,recognitionstage,,2025.1.1,60.39792569317332,2026-02-02 18h33.51.502168 +0530,
,,,36,36,0,30,frames\Vid30_EM_T.png,frames\Vid30_L.png,['l'],1,[7.599143300001742],[None],5,0.9625667999935104,,,,,0,36,36,29,1827.5906480999984,,23,Male,Right handed,Normal,,,,,,,,,,,,,,,,,,,,,,,,,,,,,,,,,,,,,,,,1827.5817384999973,1827.5906480999984,1827.5906480999984,1827.5906480999984,1827.5906480999984,1827.5906480999984,1827.5906480999984,1835.192142999993,['l'],1,[7.599143300001742],[None],1835.1934732999944,1835.2200237999932,1835.2200237999932,1835.2200237999932,1836.1734092999977,5,0.9625667999935104,5,0.9625667999935104,,,,,,sub134_AB,001,2026-02-02_18h32.45.846,recognitionstage,,2025.1.1,60.39792569317332,2026-02-02 18h33.51.502168 +0530,
,,,37,37,0,6,frames\Vid6_BB_T.png,frames\Vid6_L.png,['r'],1,[4.10280330000387],[None],5,0.4976699999970151,,,,,0,37,37,5,1836.239089900002,,23,Male,Right handed,Normal,,,,,,,,,,,,,,,,,,,,,,,,,,,,,,,,,,,,,,,,1836.2179326000041,1836.239089900002,1836.239089900002,1836.239089900002,1836.239089900002,1836.239089900002,1836.239089900002,1840.3579182999965,['r'],1,[4.10280330000387],[None],1840.3588481000043,1840.371571900003,1840.371571900003,1840.371571900003,1840.8731000999978,5,0.4976699999970151,5,0.4976699999970151,,,,,,sub134_AB,001,2026-02-02_18h32.45.846,recognitionstage,,2025.1.1,60.39792569317332,2026-02-02 18h33.51.502168 +0530,
,,,38,38,0,25,frames\Vid25_BB_T.png,frames\Vid25_L.png,['l'],1,[4.545750799996313],[None],5,0.43104029999813065,,,,,0,38,38,24,1840.9081283999985,,23,Male,Right handed,Normal,,,,,,,,,,,,,,,,,,,,,,,,,,,,,,,,,,,,,,,,1840.884915200004,1840.9081283999985,1840.9081283999985,1840.9081283999985,1840.9081283999985,1840.9081283999985,1840.9081283999985,1845.457888200006,['l'],1,[4.545750799996313],[None],1845.4587514000013,1845.471487200004,1845.471487200004,1845.471487200004,1845.9056203999935,5,0.43104029999813065,5,0.43104029999813065,,,,,,sub134_AB,001,2026-02-02_18h32.45.846,recognitionstage,,2025.1.1,60.39792569317332,2026-02-02 18h33.51.502168 +0530,
,,,39,39,0,40,frames\Vid40_EM_T.png,frames\Vid40_L.png,['r'],0,[10.41800439999497],[None],3,1.4655905999970855,,,,,0,39,39,39,1845.9238543999963,,23,Male,Right handed,Normal,,,,,,,,,,,,,,,,,,,,,,,,,,,,,,,,,,,,,,,,1845.915161500001,1845.9238543999963,1845.9238543999963,1845.9238543999963,1845.9238543999963,1845.9238543999963,1845.9238543999963,1856.3571693999984,['r'],0,[10.41800439999497],[None],1856.3579355999973,1856.3715841999947,1856.3715841999947,1856.3715841999947,1857.839014199999,3,1.4655905999970855,3,1.4655905999970855,,,,,,sub134_AB,001,2026-02-02_18h32.45.846,recognitionstage,,2025.1.1,60.39792569317332,2026-02-02 18h33.51.502168 +0530,
,,,,,,,,,,,,,,,,,,,,,,,,,23,Male,Right handed,Normal,,,,,,,,,,,,,,,,,,,,,,,,,,,,,,,,,,,,,,,,,,,,,,,,,,,,,,,,,,,,,1857.839121500001,1857.8561995999917,1857.8561995999917,1877.8400290999998,None,sub134_AB,001,2026-02-02_18h32.45.846,recognitionstage,,2025.1.1,60.39792569317332,2026-02-02 18h33.51.502168 +0530,
