path,duration,is_repeat,thisN,thisTrialN,thisRepN,movie_id,target_img,lure_img,resp.keys,resp.corr,resp.rt,resp.duration,conf_radio.response,conf_radio.rt,movie.thisRepN,movie.thisTrialN,movie.thisN,movie.thisIndex,recogloop.thisRepN,recogloop.thisTrialN,recogloop.thisN,recogloop.thisIndex,thisRow.t,notes,age,gender,handedness,vision,caffeine_2h,alcohol_smoke_12h,demographics.started,demographics.stopped,Instructions.started,text1.started,key_resp.started,Instructions.stopped,key_resp.keys,key_resp.rt,key_resp.duration,instruction_2.started,text2.started,key_resp_2.started,instruction_2.stopped,key_resp_2.keys,key_resp_2.rt,key_resp_2.duration,Videos.started,movie_2.started,vigilance_resp.started,movie_2.stopped,Videos.stopped,movie.vigilance_resp.keys,vigilance_pressed,vigilance_correct,ISI.started,text.started,text.stopped,ISI.stopped,movie.vigilance_resp.rt,movie.vigilance_resp.duration,recognition.started,text_4.started,key_resp_3.started,recognition.stopped,key_resp_3.keys,key_resp_3.rt,key_resp_3.duration,recognition_task.started,leftimage.started,rightimage.started,resp.started,frames_question.started,right_label.started,left_label.started,recognition_task.stopped,recogloop.resp.keys,recogloop.resp.corr,recogloop.resp.rt,recogloop.resp.duration,confidence.started,conf_text.started,conf_radio.started,conf_label.started,confidence.stopped,recogloop.conf_radio.response,recogloop.conf_radio.rt,confidence,confidence_rt,thank_you.started,text_6.started,key_resp_4.started,thank_you.stopped,key_resp_4.keys,participant,session,date,expName,expVersion,psychopyVersion,frameRate,expStart,...103
,,,,,,,,,,,,,,,,,,,,,,,,,20,Male,Left Handed,Normal,Caffeine consumed in last 2 hours?,Alcohol or smoking in last 12 hours?,0.004740600008517504,0.06476870000187773,,,,,,,,,,,,,,,,,,,,,,,,,,,,,,,,,,,,,,,,,,,,,,,,,,,,,,,,,,,,,,sub228_AB,001,2026-02-02_11h58.22.729,recognitionstage,,2025.1.1,59.71086803501898,2026-02-02 11h59.17.667934 +0530,
,,,,,,,,,,,,,,,,,,,,,,,,,20,Male,Left Handed,Normal,,,,,0.06479730000137351,0.07168219999584835,0.07168219999584835,9.475013600007514,space,9.387971999996807,None,,,,,,,,,,,,,,,,,,,,,,,,,,,,,,,,,,,,,,,,,,,,,,,,,,,,,,,sub228_AB,001,2026-02-02_11h58.22.729,recognitionstage,,2025.1.1,59.71086803501898,2026-02-02 11h59.17.667934 +0530,
,,,,,,,,,,,,,,,,,,,,,,,,,20,Male,Left Handed,Normal,,,,,,,,,,,,9.475061899996945,9.491380799998296,9.491380799998296,17.275251600003685,space,7.768396699990262,None,,,,,,,,,,,,,,,,,,,,,,,,,,,,,,,,,,,,,,,,,,,,,,,,sub228_AB,001,2026-02-02_11h58.22.729,recognitionstage,,2025.1.1,59.71086803501898,2026-02-02 11h59.17.667934 +0530,
abrupt_videos\abrupt_3.mp4,27,1,44,44,0,,,,,,,,,,0,44,44,2,,,,,1579.8558554000047,,20,Male,Left Handed,Normal,,,,,,,,,,,,,,,,,,,1579.809152300004,1579.8558554000047,1579.8558554000047,1568.638712400003,1581.0757494999998,space,1,1,1581.2077583000064,1581.221002899998,1583.7233359000093,1583.7069307000056,1.2191516000020783,None,1583.7069735999976,1583.7233359000093,1583.7233359000093,1618.1252233999985,space,34.39188520000607,None,,,,,,,,,,,,,,,,,,,,,,,,,,,sub228_AB,001,2026-02-02_11h58.22.729,recognitionstage,,2025.1.1,59.71086803501898,2026-02-02 11h59.17.667934 +0530,
,,,0,0,0,31,frames\Vid31_EM_T.png,frames\Vid31_L.png,['r'],1,[6.655102999997325],[None],5,6.463863600001787,,,,,0,0,0,30,1618.1720413000003,,20,Male,Left Handed,Normal,,,,,,,,,,,,,,,,,,,,,,,,,,,,,,,,,,,,,,,,1618.160069999998,1618.1720413000003,1618.1720413000003,1618.1720413000003,1618.1720413000003,1618.1720413000003,1618.1720413000003,1624.8418669999955,['r'],1,[6.655102999997325],[None],1624.8430998999975,1624.8709780000063,1624.8709780000063,1624.8709780000063,1631.3245180000085,5,6.463863600001787,5,6.463863600001787,,,,,,sub228_AB,001,2026-02-02_11h58.22.729,recognitionstage,,2025.1.1,59.71086803501898,2026-02-02 11h59.17.667934 +0530,
,,,1,1,0,29,frames\Vid29_BB_T.png,frames\Vid29_L.png,['l'],0,[11.343477699992945],[None],2,1.9617386999889277,,,,,0,1,1,28,1631.3718059999956,,20,Male,Left Handed,Normal,,,,,,,,,,,,,,,,,,,,,,,,,,,,,,,,,,,,,,,,1631.3540509000013,1631.3718059999956,1631.3718059999956,1631.3718059999956,1631.3718059999956,1631.3718059999956,1631.3718059999956,1642.7270665999968,['l'],0,[11.343477699992945],[None],1642.7285040999996,1642.7544227000035,1642.7544227000035,1642.7544227000035,1644.706994399996,2,1.9617386999889277,2,1.9617386999889277,,,,,,sub228_AB,001,2026-02-02_11h58.22.729,recognitionstage,,2025.1.1,59.71086803501898,2026-02-02 11h59.17.667934 +0530,
,,,2,2,0,25,frames\Vid25_BB_T.png,frames\Vid25_L.png,['r'],0,[9.007689199992456],[None],4,1.3151654999965103,,,,,0,2,2,24,1644.7393927000085,,20,Male,Left Handed,Normal,,,,,,,,,,,,,,,,,,,,,,,,,,,,,,,,,,,,,,,,1644.7306577999989,1644.7393927000085,1644.7393927000085,1644.7393927000085,1644.7393927000085,1644.7393927000085,1644.7393927000085,1653.7587447999977,['r'],0,[9.007689199992456],[None],1653.7596216000093,1653.7727389000065,1653.7727389000065,1653.7727389000065,1655.090514800002,4,1.3151654999965103,4,1.3151654999965103,,,,,,sub228_AB,001,2026-02-02_11h58.22.729,recognitionstage,,2025.1.1,59.71086803501898,2026-02-02 11h59.17.667934 +0530,
,,,3,3,0,8,frames\Vid8_BB_T.png,frames\Vid8_L.png,['r'],0,[3.5825073000014527],[None],5,0.9808232000068529,,,,,0,3,3,7,1655.1565415000077,,20,Male,Left Handed,Normal,,,,,,,,,,,,,,,,,,,,,,,,,,,,,,,,,,,,,,,,1655.1420230000076,1655.1565415000077,1655.1565415000077,1655.1565415000077,1655.1565415000077,1655.1565415000077,1655.1565415000077,1658.7419822000084,['r'],0,[3.5825073000014527],[None],1658.7431238999998,1658.7560329999978,1658.7560329999978,1658.7560329999978,1659.7411682999955,5,0.9808232000068529,5,0.9808232000068529,,,,,,sub228_AB,001,2026-02-02_11h58.22.729,recognitionstage,,2025.1.1,59.71086803501898,2026-02-02 11h59.17.667934 +0530,
,,,4,4,0,37,frames\Vid37_BB_T.png,frames\Vid37_L.png,['r'],1,[2.294415399999707],[None],5,1.0825153999903705,,,,,0,4,4,36,1659.7885898999957,,20,Male,Left Handed,Normal,,,,,,,,,,,,,,,,,,,,,,,,,,,,,,,,,,,,,,,,1659.7781157999998,1659.7885898999957,1659.7885898999957,1659.7885898999957,1659.7885898999957,1659.7885898999957,1659.7885898999957,1662.0920028999972,['r'],1,[2.294415399999707],[None],1662.0931417999964,1662.1064808000083,1662.1064808000083,1662.1064808000083,1663.1900691000046,5,1.0825153999903705,5,1.0825153999903705,,,,,,sub228_AB,001,2026-02-02_11h58.22.729,recognitionstage,,2025.1.1,59.71086803501898,2026-02-02 11h59.17.667934 +0530,
,,,5,5,0,22,frames\Vid22_EM_T.png,frames\Vid22_L.png,['l'],1,[4.660127000010107],[None],5,1.3826599000021815,,,,,0,5,5,21,1663.2228961000073,,20,Male,Left Handed,Normal,,,,,,,,,,,,,,,,,,,,,,,,,,,,,,,,,,,,,,,,1663.2167928999988,1663.2228961000073,1663.2228961000073,1663.2228961000073,1663.2228961000073,1663.2228961000073,1663.2228961000073,1667.8915474999958,['l'],1,[4.660127000010107],[None],1667.8925506000087,1667.906464300002,1667.906464300002,1667.906464300002,1669.2901583000057,5,1.3826599000021815,5,1.3826599000021815,,,,,,sub228_AB,001,2026-02-02_11h58.22.729,recognitionstage,,2025.1.1,59.71086803501898,2026-02-02 11h59.17.667934 +0530,
,,,6,6,0,40,frames\Vid40_EM_T.png,frames\Vid40_L.png,['l'],1,[3.3440009000041755],[None],5,1.3320314000011422,,,,,0,6,6,39,1669.3230584999983,,20,Male,Left Handed,Normal,,,,,,,,,,,,,,,,,,,,,,,,,,,,,,,,,,,,,,,,1669.311007700002,1669.3230584999983,1669.3230584999983,1669.3230584999983,1669.3230584999983,1669.3230584999983,1669.3230584999983,1672.6748645000043,['l'],1,[3.3440009000041755],[None],1672.675478899997,1672.689387300008,1672.689387300008,1672.689387300008,1674.023763300007,5,1.3320314000011422,5,1.3320314000011422,,,,,,sub228_AB,001,2026-02-02_11h58.22.729,recognitionstage,,2025.1.1,59.71086803501898,2026-02-02 11h59.17.667934 +0530,
,,,7,7,0,32,frames\Vid32_EM_T.png,frames\Vid32_L.png,['l'],1,[3.3151241000014124],[None],5,1.2313771999906749,,,,,0,7,7,31,1674.056021700002,,20,Male,Left Handed,Normal,,,,,,,,,,,,,,,,,,,,,,,,,,,,,,,,,,,,,,,,1674.0490368000028,1674.056021700002,1674.056021700002,1674.056021700002,1674.056021700002,1674.056021700002,1674.056021700002,1677.3760065000097,['l'],1,[3.3151241000014124],[None],1677.3767385999963,1677.389317299996,1677.389317299996,1677.389317299996,1678.623185000004,5,1.2313771999906749,5,1.2313771999906749,,,,,,sub228_AB,001,2026-02-02_11h58.22.729,recognitionstage,,2025.1.1,59.71086803501898,2026-02-02 11h59.17.667934 +0530,
,,,8,8,0,12,frames\Vid12_EM_T.png,frames\Vid12_L.png,['r'],1,[4.336891300001298],[None],5,1.1301805999974022,,,,,0,8,8,11,1678.6900984999957,,20,Male,Left Handed,Normal,,,,,,,,,,,,,,,,,,,,,,,,,,,,,,,,,,,,,,,,1678.6828740000055,1678.6900984999957,1678.6900984999957,1678.6900984999957,1678.6900984999957,1678.6900984999957,1678.6900984999957,1683.0427447999973,['r'],1,[4.336891300001298],[None],1683.0437974000088,1683.0712912000017,1683.0712912000017,1683.0712912000017,1684.190288800004,5,1.1301805999974022,5,1.1301805999974022,,,,,,sub228_AB,001,2026-02-02_11h58.22.729,recognitionstage,,2025.1.1,59.71086803501898,2026-02-02 11h59.17.667934 +0530,
,,,9,9,0,7,frames\Vid7_EM_T.png,frames\Vid7_L.png,['r'],0,[4.263386000005994],[None],3,1.431179000006523,,,,,0,9,9,6,1684.2596373999986,,20,Male,Left Handed,Normal,,,,,,,,,,,,,,,,,,,,,,,,,,,,,,,,,,,,,,,,1684.2470328000054,1684.2596373999986,1684.2596373999986,1684.2596373999986,1684.2596373999986,1684.2596373999986,1684.2596373999986,1688.525111199997,['r'],0,[4.263386000005994],[None],1688.526149600002,1688.5399775999977,1688.5399775999977,1688.5399775999977,1689.9741497000068,3,1.431179000006523,3,1.431179000006523,,,,,,sub228_AB,001,2026-02-02_11h58.22.729,recognitionstage,,2025.1.1,59.71086803501898,2026-02-02 11h59.17.667934 +0530,
,,,10,10,0,23,frames\Vid23_EM_T.png,frames\Vid23_L.png,['l'],1,[5.7458313000097405],[None],4,2.8634407999925315,,,,,0,10,10,22,1690.0252471999993,,20,Male,Left Handed,Normal,,,,,,,,,,,,,,,,,,,,,,,,,,,,,,,,,,,,,,,,1690.0040200000076,1690.0252471999993,1690.0252471999993,1690.0252471999993,1690.0252471999993,1690.0252471999993,1690.0252471999993,1695.7762737000012,['l'],1,[5.7458313000097405],[None],1695.7776942000055,1695.789287599997,1695.789287599997,1695.789287599997,1698.6573255999974,4,2.8634407999925315,4,2.8634407999925315,,,,,,sub228_AB,001,2026-02-02_11h58.22.729,recognitionstage,,2025.1.1,59.71086803501898,2026-02-02 11h59.17.667934 +0530,
,,,11,11,0,9,frames\Vid9_EM_T.png,frames\Vid9_L.png,['l'],1,[2.583546000008937],[None],5,0.9997196000040276,,,,,0,11,11,8,1698.723484800008,,20,Male,Left Handed,Normal,,,,,,,,,,,,,,,,,,,,,,,,,,,,,,,,,,,,,,,,1698.7077054999972,1698.723484800008,1698.723484800008,1698.723484800008,1698.723484800008,1698.723484800008,1698.723484800008,1701.3083023000072,['l'],1,[2.583546000008937],[None],1701.3090443999972,1701.3231090000045,1701.3231090000045,1701.3231090000045,1702.323684700008,5,0.9997196000040276,5,0.9997196000040276,,,,,,sub228_AB,001,2026-02-02_11h58.22.729,recognitionstage,,2025.1.1,59.71086803501898,2026-02-02 11h59.17.667934 +0530,
,,,12,12,0,15,frames\Vid15_BB_T.png,frames\Vid15_L.png,['r'],0,[7.3613771999953315],[None],1,1.3159965000086231,,,,,0,12,12,14,1702.4095501999982,,20,Male,Left Handed,Normal,,,,,,,,,,,,,,,,,,,,,,,,,,,,,,,,,,,,,,,,1702.3874507,1702.4095501999982,1702.4095501999982,1702.4095501999982,1702.4095501999982,1702.4095501999982,1702.4095501999982,1709.7744985000027,['r'],0,[7.3613771999953315],[None],1709.775320700006,1709.8048123000044,1709.8048123000044,1709.8048123000044,1711.1073533000017,1,1.3159965000086231,1,1.3159965000086231,,,,,,sub228_AB,001,2026-02-02_11h58.22.729,recognitionstage,,2025.1.1,59.71086803501898,2026-02-02 11h59.17.667934 +0530,
,,,13,13,0,39,frames\Vid39_BB_T.png,frames\Vid39_L.png,['r'],0,[5.1568470999918645],[None],3,0.8978520999953616,,,,,0,13,13,38,1711.1422756999964,,20,Male,Left Handed,Normal,,,,,,,,,,,,,,,,,,,,,,,,,,,,,,,,,,,,,,,,1711.1303419000033,1711.1422756999964,1711.1422756999964,1711.1422756999964,1711.1422756999964,1711.1422756999964,1711.1422756999964,1716.3090645000048,['r'],0,[5.1568470999918645],[None],1716.310125700009,1716.3230764000036,1716.3230764000036,1716.3230764000036,1717.2242606000073,3,0.8978520999953616,3,0.8978520999953616,,,,,,sub228_AB,001,2026-02-02_11h58.22.729,recognitionstage,,2025.1.1,59.71086803501898,2026-02-02 11h59.17.667934 +0530,
,,,14,14,0,3,frames\Vid3_BB_T.png,frames\Vid3_L.png,['l'],1,[2.6011277999932645],[None],5,1.0314514000056079,,,,,0,14,14,2,1717.2898474999965,,20,Male,Left Handed,Normal,,,,,,,,,,,,,,,,,,,,,,,,,,,,,,,,,,,,,,,,1717.2774359000032,1717.2898474999965,1717.2898474999965,1717.2898474999965,1717.2898474999965,1717.2898474999965,1717.2898474999965,1719.8916613000038,['l'],1,[2.6011277999932645],[None],1719.8929231000075,1719.9066338999983,1719.9066338999983,1719.9066338999983,1720.941003400003,5,1.0314514000056079,5,1.0314514000056079,,,,,,sub228_AB,001,2026-02-02_11h58.22.729,recognitionstage,,2025.1.1,59.71086803501898,2026-02-02 11h59.17.667934 +0530,
,,,15,15,0,34,frames\Vid34_BB_T.png,frames\Vid34_L.png,['l'],0,[2.923643699992681],[None],5,1.1325644000025932,,,,,0,15,15,33,1720.9752525000076,,20,Male,Left Handed,Normal,,,,,,,,,,,,,,,,,,,,,,,,,,,,,,,,,,,,,,,,1720.9649447999982,1720.9752525000076,1720.9752525000076,1720.9752525000076,1720.9752525000076,1720.9752525000076,1720.9752525000076,1723.907756200002,['l'],0,[2.923643699992681],[None],1723.9085931000009,1723.923106800008,1723.923106800008,1723.923106800008,1725.057795700006,5,1.1325644000025932,5,1.1325644000025932,,,,,,sub228_AB,001,2026-02-02_11h58.22.729,recognitionstage,,2025.1.1,59.71086803501898,2026-02-02 11h59.17.667934 +0530,
,,,16,16,0,16,frames\Vid16_EM_T.png,frames\Vid16_L.png,['r'],1,[3.8313628000032622],[None],4,1.4822151999978814,,,,,0,16,16,15,1725.1235331000062,,20,Male,Left Handed,Normal,,,,,,,,,,,,,,,,,,,,,,,,,,,,,,,,,,,,,,,,1725.111055500005,1725.1235331000062,1725.1235331000062,1725.1235331000062,1725.1235331000062,1725.1235331000062,1725.1235331000062,1728.9579585000029,['r'],1,[3.8313628000032622],[None],1728.9588136000093,1728.9729996000096,1728.9729996000096,1728.9729996000096,1730.4572311000084,4,1.4822151999978814,4,1.4822151999978814,,,,,,sub228_AB,001,2026-02-02_11h58.22.729,recognitionstage,,2025.1.1,59.71086803501898,2026-02-02 11h59.17.667934 +0530,
,,,17,17,0,35,frames\Vid35_EM_T.png,frames\Vid35_L.png,['l'],1,[4.910896100001992],[None],5,1.030617099997471,,,,,0,17,17,34,1730.4922039000085,,20,Male,Left Handed,Normal,,,,,,,,,,,,,,,,,,,,,,,,,,,,,,,,,,,,,,,,1730.4786115000024,1730.4922039000085,1730.4922039000085,1730.4922039000085,1730.4922039000085,1730.4922039000085,1730.4922039000085,1735.4092977999971,['l'],1,[4.910896100001992],[None],1735.4103049999976,1735.4226847999962,1735.4226847999962,1735.4226847999962,1736.4564970000065,5,1.030617099997471,5,1.030617099997471,,,,,,sub228_AB,001,2026-02-02_11h58.22.729,recognitionstage,,2025.1.1,59.71086803501898,2026-02-02 11h59.17.667934 +0530,
,,,18,18,0,28,frames\Vid28_EM_T.png,frames\Vid28_L.png,['l'],1,[19.38576849999663],[None],4,1.2151180999935605,,,,,0,18,18,27,1736.4893428000069,,20,Male,Left Handed,Normal,,,,,,,,,,,,,,,,,,,,,,,,,,,,,,,,,,,,,,,,1736.4804656000051,1736.4893428000069,1736.4893428000069,1736.4893428000069,1736.4893428000069,1736.4893428000069,1736.4893428000069,1755.8911047000001,['l'],1,[19.38576849999663],[None],1755.8922954000009,1755.906447100002,1755.906447100002,1755.906447100002,1757.1234048000042,4,1.2151180999935605,4,1.2151180999935605,,,,,,sub228_AB,001,2026-02-02_11h58.22.729,recognitionstage,,2025.1.1,59.71086803501898,2026-02-02 11h59.17.667934 +0530,
,,,19,19,0,33,frames\Vid33_BB_T.png,frames\Vid33_L.png,['l'],1,[3.358883099994273],[None],5,1.2654374999983702,,,,,0,19,19,32,1757.1560717999964,,20,Male,Left Handed,Normal,,,,,,,,,,,,,,,,,,,,,,,,,,,,,,,,,,,,,,,,1757.1475202000001,1757.1560717999964,1757.1560717999964,1757.1560717999964,1757.1560717999964,1757.1560717999964,1757.1560717999964,1760.524202200002,['l'],1,[3.358883099994273],[None],1760.5250154999958,1760.5401797000086,1760.5401797000086,1760.5401797000086,1761.8068444000091,5,1.2654374999983702,5,1.2654374999983702,,,,,,sub228_AB,001,2026-02-02_11h58.22.729,recognitionstage,,2025.1.1,59.71086803501898,2026-02-02 11h59.17.667934 +0530,
,,,20,20,0,21,frames\Vid21_BB_T.png,frames\Vid21_L.png,['r'],0,[4.083599300007336],[None],5,0.880477200000314,,,,,0,20,20,20,1761.8394737000053,,20,Male,Left Handed,Normal,,,,,,,,,,,,,,,,,,,,,,,,,,,,,,,,,,,,,,,,1761.8320511000056,1761.8394737000053,1761.8394737000053,1761.8394737000053,1761.8394737000053,1761.8394737000053,1761.8394737000053,1765.9257061000098,['r'],0,[4.083599300007336],[None],1765.9266408999974,1765.9396297000058,1765.9396297000058,1765.9396297000058,1766.8243247000064,5,0.880477200000314,5,0.880477200000314,,,,,,sub228_AB,001,2026-02-02_11h58.22.729,recognitionstage,,2025.1.1,59.71086803501898,2026-02-02 11h59.17.667934 +0530,
,,,21,21,0,2,frames\Vid2_BB_T.png,frames\Vid2_L.png,['l'],0,[3.136807399991085],[None],3,1.0146347999980208,,,,,0,21,21,1,1766.8900979000027,,20,Male,Left Handed,Normal,,,,,,,,,,,,,,,,,,,,,,,,,,,,,,,,,,,,,,,,1766.8766197000077,1766.8900979000027,1766.8900979000027,1766.8900979000027,1766.8900979000027,1766.8900979000027,1766.8900979000027,1770.041567200009,['l'],0,[3.136807399991085],[None],1770.0424285000045,1770.055961799997,1770.055961799997,1770.055961799997,1771.0741481000005,3,1.0146347999980208,3,1.0146347999980208,,,,,,sub228_AB,001,2026-02-02_11h58.22.729,recognitionstage,,2025.1.1,59.71086803501898,2026-02-02 11h59.17.667934 +0530,
,,,22,22,0,6,frames\Vid6_BB_T.png,frames\Vid6_L.png,['l'],0,[6.163229899990256],[None],3,1.0821965999930399,,,,,0,22,22,5,1771.1438161999977,,20,Male,Left Handed,Normal,,,,,,,,,,,,,,,,,,,,,,,,,,,,,,,,,,,,,,,,1771.1303181999974,1771.1438161999977,1771.1438161999977,1771.1438161999977,1771.1438161999977,1771.1438161999977,1771.1438161999977,1777.3078750999994,['l'],0,[6.163229899990256],[None],1777.3086962000089,1777.3229912000097,1777.3229912000097,1777.3229912000097,1778.407125400001,3,1.0821965999930399,3,1.0821965999930399,,,,,,sub228_AB,001,2026-02-02_11h58.22.729,recognitionstage,,2025.1.1,59.71086803501898,2026-02-02 11h59.17.667934 +0530,
,,,23,23,0,20,frames\Vid20_EM_T.png,frames\Vid20_L.png,['r'],0,[7.136303499995847],[None],3,2.5992659000039566,,,,,0,23,23,19,1778.4425548,,20,Male,Left Handed,Normal,,,,,,,,,,,,,,,,,,,,,,,,,,,,,,,,,,,,,,,,1778.4267578,1778.4425548,1778.4425548,1778.4425548,1778.4425548,1778.4425548,1778.4425548,1785.591279500004,['r'],0,[7.136303499995847],[None],1785.5920687000034,1785.6058559000085,1785.6058559000085,1785.6058559000085,1788.2065561000054,3,2.5992659000039566,3,2.5992659000039566,,,,,,sub228_AB,001,2026-02-02_11h58.22.729,recognitionstage,,2025.1.1,59.71086803501898,2026-02-02 11h59.17.667934 +0530,
,,,24,24,0,18,frames\Vid18_EM_T.png,frames\Vid18_L.png,['r'],0,[4.931500000006054],[None],5,1.4822397000098135,,,,,0,24,24,17,1788.2394783000054,,20,Male,Left Handed,Normal,,,,,,,,,,,,,,,,,,,,,,,,,,,,,,,,,,,,,,,,1788.2307677000063,1788.2394783000054,1788.2394783000054,1788.2394783000054,1788.2394783000054,1788.2394783000054,1788.2394783000054,1793.1742478000087,['r'],0,[4.931500000006054],[None],1793.1750597000064,1793.1897940000053,1793.1897940000053,1793.1897940000053,1794.6736893000052,5,1.4822397000098135,5,1.4822397000098135,,,,,,sub228_AB,001,2026-02-02_11h58.22.729,recognitionstage,,2025.1.1,59.71086803501898,2026-02-02 11h59.17.667934 +0530,
,,,25,25,0,4,frames\Vid4_EM_T.png,frames\Vid4_L.png,['l'],1,[3.1586881000112044],[None],5,0.7843547999946168,,,,,0,25,25,3,1794.7401867000008,,20,Male,Left Handed,Normal,,,,,,,,,,,,,,,,,,,,,,,,,,,,,,,,,,,,,,,,1794.7313793000067,1794.7401867000008,1794.7401867000008,1794.7401867000008,1794.7401867000008,1794.7401867000008,1794.7401867000008,1797.9072057000012,['l'],1,[3.1586881000112044],[None],1797.9077642000047,1797.9231818999979,1797.9231818999979,1797.9231818999979,1798.7069634000072,5,0.7843547999946168,5,0.7843547999946168,,,,,,sub228_AB,001,2026-02-02_11h58.22.729,recognitionstage,,2025.1.1,59.71086803501898,2026-02-02 11h59.17.667934 +0530,
,,,26,26,0,11,frames\Vid11_EM_T.png,frames\Vid11_L.png,['l'],0,[16.914528999986942],[None],4,1.5792493000044487,,,,,0,26,26,10,1798.7765360000049,,20,Male,Left Handed,Normal,,,,,,,,,,,,,,,,,,,,,,,,,,,,,,,,,,,,,,,,1798.761820300002,1798.7765360000049,1798.7765360000049,1798.7765360000049,1798.7765360000049,1798.7765360000049,1798.7765360000049,1815.6935107000027,['l'],0,[16.914528999986942],[None],1815.6949836999993,1815.7059379999992,1815.7059379999992,1815.7059379999992,1817.2906631000078,4,1.5792493000044487,4,1.5792493000044487,,,,,,sub228_AB,001,2026-02-02_11h58.22.729,recognitionstage,,2025.1.1,59.71086803501898,2026-02-02 11h59.17.667934 +0530,
,,,27,27,0,24,frames\Vid24_BB_T.png,frames\Vid24_L.png,['l'],1,[3.2208527000038885],[None],5,1.3517241000081412,,,,,0,27,27,23,1817.3420055000024,,20,Male,Left Handed,Normal,,,,,,,,,,,,,,,,,,,,,,,,,,,,,,,,,,,,,,,,1817.3206780000037,1817.3420055000024,1817.3420055000024,1817.3420055000024,1817.3420055000024,1817.3420055000024,1817.3420055000024,1820.5740338000032,['l'],1,[3.2208527000038885],[None],1820.5747936999978,1820.5899195000093,1820.5899195000093,1820.5899195000093,1821.939815100006,5,1.3517241000081412,5,1.3517241000081412,,,,,,sub228_AB,001,2026-02-02_11h58.22.729,recognitionstage,,2025.1.1,59.71086803501898,2026-02-02 11h59.17.667934 +0530,
,,,28,28,0,27,frames\Vid27_BB_T.png,frames\Vid27_L.png,['l'],1,[2.494388199993409],[None],5,1.148713599992334,,,,,0,28,28,26,1821.9729848999996,,20,Male,Left Handed,Normal,,,,,,,,,,,,,,,,,,,,,,,,,,,,,,,,,,,,,,,,1821.962620300008,1821.9729848999996,1821.9729848999996,1821.9729848999996,1821.9729848999996,1821.9729848999996,1821.9729848999996,1824.4746096000017,['l'],1,[2.494388199993409],[None],1824.4755817999976,1824.489739800003,1824.489739800003,1824.489739800003,1825.640088500004,5,1.148713599992334,5,1.148713599992334,,,,,,sub228_AB,001,2026-02-02_11h58.22.729,recognitionstage,,2025.1.1,59.71086803501898,2026-02-02 11h59.17.667934 +0530,
,,,29,29,0,10,frames\Vid10_BB_T.png,frames\Vid10_L.png,['l'],1,[11.752401400008239],[None],3,3.8486569999950007,,,,,0,29,29,9,1825.7066934000031,,20,Male,Left Handed,Normal,,,,,,,,,,,,,,,,,,,,,,,,,,,,,,,,,,,,,,,,1825.6950480000087,1825.7066934000031,1825.7066934000031,1825.7066934000031,1825.7066934000031,1825.7066934000031,1825.7066934000031,1837.4745226000086,['l'],1,[11.752401400008239],[None],1837.4755192000011,1837.489763400008,1837.489763400008,1837.489763400008,1841.3398638000072,3,3.8486569999950007,3,3.8486569999950007,,,,,,sub228_AB,001,2026-02-02_11h58.22.729,recognitionstage,,2025.1.1,59.71086803501898,2026-02-02 11h59.17.667934 +0530,
,,,30,30,0,1,frames\Vid1_EM_T.png,frames\Vid1_L.png,['l'],1,[2.008740100005525],[None],5,1.0463535000017146,,,,,0,30,30,0,1841.410214500007,,20,Male,Left Handed,Normal,,,,,,,,,,,,,,,,,,,,,,,,,,,,,,,,,,,,,,,,1841.3990491000004,1841.410214500007,1841.410214500007,1841.410214500007,1841.410214500007,1841.410214500007,1841.410214500007,1843.4259791000077,['l'],1,[2.008740100005525],[None],1843.427320200004,1843.4392519999965,1843.4392519999965,1843.4392519999965,1844.4902350000048,5,1.0463535000017146,5,1.0463535000017146,,,,,,sub228_AB,001,2026-02-02_11h58.22.729,recognitionstage,,2025.1.1,59.71086803501898,2026-02-02 11h59.17.667934 +0530,
,,,31,31,0,38,frames\Vid38_EM_T.png,frames\Vid38_L.png,['r'],1,[4.7252341999992495],[None],4,1.5802933999948436,,,,,0,31,31,37,1844.5257781999971,,20,Male,Left Handed,Normal,,,,,,,,,,,,,,,,,,,,,,,,,,,,,,,,,,,,,,,,1844.514925399999,1844.5257781999971,1844.5257781999971,1844.5257781999971,1844.5257781999971,1844.5257781999971,1844.5257781999971,1849.259038899996,['r'],1,[4.7252341999992495],[None],1849.2603666000068,1849.2879441999976,1849.2879441999976,1849.2879441999976,1850.856571700002,4,1.5802933999948436,4,1.5802933999948436,,,,,,sub228_AB,001,2026-02-02_11h58.22.729,recognitionstage,,2025.1.1,59.71086803501898,2026-02-02 11h59.17.667934 +0530,
,,,32,32,0,36,frames\Vid36_BB_T.png,frames\Vid36_L.png,['l'],0,[4.033394400001271],[None],4,0.9656343999959063,,,,,0,32,32,35,1850.889539099997,,20,Male,Left Handed,Normal,,,,,,,,,,,,,,,,,,,,,,,,,,,,,,,,,,,,,,,,1850.8818562000088,1850.889539099997,1850.889539099997,1850.889539099997,1850.889539099997,1850.889539099997,1850.889539099997,1854.9240978000016,['l'],0,[4.033394400001271],[None],1854.9247773000097,1854.9397424000053,1854.9397424000053,1854.9397424000053,1855.9068578000006,4,0.9656343999959063,4,0.9656343999959063,,,,,,sub228_AB,001,2026-02-02_11h58.22.729,recognitionstage,,2025.1.1,59.71086803501898,2026-02-02 11h59.17.667934 +0530,
,,,33,33,0,30,frames\Vid30_EM_T.png,frames\Vid30_L.png,['l'],1,[5.47136579999642],[None],5,0.9311239999951795,,,,,0,33,33,29,1855.9395079000096,,20,Male,Left Handed,Normal,,,,,,,,,,,,,,,,,,,,,,,,,,,,,,,,,,,,,,,,1855.9295669999992,1855.9395079000096,1855.9395079000096,1855.9395079000096,1855.9395079000096,1855.9395079000096,1855.9395079000096,1861.4252148000087,['l'],1,[5.47136579999642],[None],1861.4263247000054,1861.4393777000078,1861.4393777000078,1861.4393777000078,1862.3731886000023,5,0.9311239999951795,5,0.9311239999951795,,,,,,sub228_AB,001,2026-02-02_11h58.22.729,recognitionstage,,2025.1.1,59.71086803501898,2026-02-02 11h59.17.667934 +0530,
,,,34,34,0,5,frames\Vid5_EM_T.png,frames\Vid5_L.png,['r'],0,[12.923806499995408],[None],4,1.6490454000013415,,,,,0,34,34,4,1862.4232168000017,,20,Male,Left Handed,Normal,,,,,,,,,,,,,,,,,,,,,,,,,,,,,,,,,,,,,,,,1862.4146488999977,1862.4232168000017,1862.4232168000017,1862.4232168000017,1862.4232168000017,1862.4232168000017,1862.4232168000017,1875.3576961000072,['r'],0,[12.923806499995408],[None],1875.3585077000025,1875.3730810999987,1875.3730810999987,1875.3730810999987,1877.0231773999985,4,1.6490454000013415,4,1.6490454000013415,,,,,,sub228_AB,001,2026-02-02_11h58.22.729,recognitionstage,,2025.1.1,59.71086803501898,2026-02-02 11h59.17.667934 +0530,
,,,35,35,0,19,frames\Vid19_BB_T.png,frames\Vid19_L.png,['r'],1,[3.7129329000017606],[None],4,0.9142050000082236,,,,,0,35,35,18,1877.0580144999985,,20,Male,Left Handed,Normal,,,,,,,,,,,,,,,,,,,,,,,,,,,,,,,,,,,,,,,,1877.0467260000005,1877.0580144999985,1877.0580144999985,1877.0580144999985,1877.0580144999985,1877.0580144999985,1877.0580144999985,1880.7755474000005,['r'],1,[3.7129329000017606],[None],1880.7765817000036,1880.7893309000065,1880.7893309000065,1880.7893309000065,1881.7070204000047,4,0.9142050000082236,4,0.9142050000082236,,,,,,sub228_AB,001,2026-02-02_11h58.22.729,recognitionstage,,2025.1.1,59.71086803501898,2026-02-02 11h59.17.667934 +0530,
,,,36,36,0,13,frames\Vid13_BB_T.png,frames\Vid13_L.png,['l'],1,[5.157499499997357],[None],5,1.0824220000067726,,,,,0,36,36,12,1881.7735354000033,,20,Male,Left Handed,Normal,,,,,,,,,,,,,,,,,,,,,,,,,,,,,,,,,,,,,,,,1881.755057900009,1881.7735354000033,1881.7735354000033,1881.7735354000033,1881.7735354000033,1881.7735354000033,1881.7735354000033,1886.9413363000058,['l'],1,[5.157499499997357],[None],1886.9421295000066,1886.9564135999972,1886.9564135999972,1886.9564135999972,1888.0399994000036,5,1.0824220000067726,5,1.0824220000067726,,,,,,sub228_AB,001,2026-02-02_11h58.22.729,recognitionstage,,2025.1.1,59.71086803501898,2026-02-02 11h59.17.667934 +0530,
,,,37,37,0,26,frames\Vid26_EM_T.png,frames\Vid26_L.png,['l'],1,[2.8549927999993088],[None],5,0.9651225999987219,,,,,0,37,37,25,1888.0918479999964,,20,Male,Left Handed,Normal,,,,,,,,,,,,,,,,,,,,,,,,,,,,,,,,,,,,,,,,1888.0682512000058,1888.0918479999964,1888.0918479999964,1888.0918479999964,1888.0918479999964,1888.0918479999964,1888.0918479999964,1890.9577453000093,['l'],1,[2.8549927999993088],[None],1890.9584378,1890.9732550000044,1890.9732550000044,1890.9732550000044,1891.9402241000062,5,0.9651225999987219,5,0.9651225999987219,,,,,,sub228_AB,001,2026-02-02_11h58.22.729,recognitionstage,,2025.1.1,59.71086803501898,2026-02-02 11h59.17.667934 +0530,
,,,38,38,0,17,frames\Vid17_BB_T.png,frames\Vid17_L.png,['l'],0,[13.013278899990837],[None],4,0.8638614999945275,,,,,0,38,38,16,1891.9898773000023,,20,Male,Left Handed,Normal,,,,,,,,,,,,,,,,,,,,,,,,,,,,,,,,,,,,,,,,1891.976254100009,1891.9898773000023,1891.9898773000023,1891.9898773000023,1891.9898773000023,1891.9898773000023,1891.9898773000023,1905.0095839999994,['l'],0,[13.013278899990837],[None],1905.0107121000037,1905.022607699997,1905.022607699997,1905.022607699997,1905.8898219999974,4,0.8638614999945275,4,0.8638614999945275,,,,,,sub228_AB,001,2026-02-02_11h58.22.729,recognitionstage,,2025.1.1,59.71086803501898,2026-02-02 11h59.17.667934 +0530,
,,,39,39,0,14,frames\Vid14_BB_T.png,frames\Vid14_L.png,['l'],1,[3.94060129999707],[None],5,0.9475552999938373,,,,,0,39,39,13,1905.9583830000047,,20,Male,Left Handed,Normal,,,,,,,,,,,,,,,,,,,,,,,,,,,,,,,,,,,,,,,,1905.9471499000065,1905.9583830000047,1905.9583830000047,1905.9583830000047,1905.9583830000047,1905.9583830000047,1905.9583830000047,1909.9084643999959,['l'],1,[3.94060129999707],[None],1909.9093454999966,1909.922470000005,1909.922470000005,1909.922470000005,1910.8734282000078,5,0.9475552999938373,5,0.9475552999938373,,,,,,sub228_AB,001,2026-02-02_11h58.22.729,recognitionstage,,2025.1.1,59.71086803501898,2026-02-02 11h59.17.667934 +0530,
,,,,,,,,,,,,,,,,,,,,,,,,,20,Male,Left Handed,Normal,,,,,,,,,,,,,,,,,,,,,,,,,,,,,,,,,,,,,,,,,,,,,,,,,,,,,,,,,,,,,1910.873510400008,1910.8897980000038,1910.8897980000038,1930.8745438000042,None,sub228_AB,001,2026-02-02_11h58.22.729,recognitionstage,,2025.1.1,59.71086803501898,2026-02-02 11h59.17.667934 +0530,
