path,duration,is_repeat,thisN,thisTrialN,thisRepN,movie_id,target_img,lure_img,resp.keys,resp.corr,resp.rt,resp.duration,conf_radio.response,conf_radio.rt,movie.thisRepN,movie.thisTrialN,movie.thisN,movie.thisIndex,recogloop.thisRepN,recogloop.thisTrialN,recogloop.thisN,recogloop.thisIndex,thisRow.t,notes,age,gender,handedness,vision,caffeine_2h,alcohol_smoke_12h,demographics.started,demographics.stopped,Instructions.started,text1.started,key_resp.started,Instructions.stopped,key_resp.keys,key_resp.rt,key_resp.duration,instruction_2.started,text2.started,key_resp_2.started,instruction_2.stopped,key_resp_2.keys,key_resp_2.rt,key_resp_2.duration,Videos.started,movie_2.started,vigilance_resp.started,movie_2.stopped,Videos.stopped,movie.vigilance_resp.keys,vigilance_pressed,vigilance_correct,ISI.started,text.started,ISI.stopped,text.stopped,movie.vigilance_resp.rt,movie.vigilance_resp.duration,recognition.started,text_4.started,key_resp_3.started,recognition.stopped,key_resp_3.keys,key_resp_3.rt,key_resp_3.duration,recognition_task.started,leftimage.started,rightimage.started,resp.started,frames_question.started,right_label.started,left_label.started,recognition_task.stopped,recogloop.resp.keys,recogloop.resp.corr,recogloop.resp.rt,recogloop.resp.duration,confidence.started,conf_text.started,conf_radio.started,conf_label.started,confidence.stopped,recogloop.conf_radio.response,recogloop.conf_radio.rt,confidence,confidence_rt,thank_you.started,text_6.started,key_resp_4.started,thank_you.stopped,key_resp_4.keys,participant,session,date,expName,expVersion,psychopyVersion,frameRate,expStart,...103
,,,,,,,,,,,,,,,,,,,,,,,,,21,Female,Right handed,Corrected to normal,Caffeine consumed in last 2 hours?,Alcohol or smoking in last 12 hours?,0.01749539999946137,0.019955100000515813,,,,,,,,,,,,,,,,,,,,,,,,,,,,,,,,,,,,,,,,,,,,,,,,,,,,,,,,,,,,,,sub122_AB,001,2026-02-01_17h07.40.396,recognitionstage,,2025.1.1,60.398181048530176,2026-02-01 17h08.26.760291 +0530,
,,,,,,,,,,,,,,,,,,,,,,,,,21,Female,Right handed,Corrected to normal,,,,,0.019976699999460834,0.03692770000088785,0.03692770000088785,8.371677600000112,space,8.325070400000186,None,,,,,,,,,,,,,,,,,,,,,,,,,,,,,,,,,,,,,,,,,,,,,,,,,,,,,,,sub122_AB,001,2026-02-01_17h07.40.396,recognitionstage,,2025.1.1,60.398181048530176,2026-02-01 17h08.26.760291 +0530,
,,,,,,,,,,,,,,,,,,,,,,,,,21,Female,Right handed,Corrected to normal,,,,,,,,,,,,8.371719900000244,8.387588400000823,8.387588400000823,28.139408999999432,space,19.750412200000937,None,,,,,,,,,,,,,,,,,,,,,,,,,,,,,,,,,,,,,,,,,,,,,,,,sub122_AB,001,2026-02-01_17h07.40.396,recognitionstage,,2025.1.1,60.398181048530176,2026-02-01 17h08.26.760291 +0530,
abrupt_videos\abrupt_25.mp4,41,0,44,44,0,,,,,,,,,,0,44,44,27,,,,,1491.2354317000008,,21,Female,Right handed,Corrected to normal,,,,,,,,,,,,,,,,,,,1491.1856454000008,1491.2354317000008,1491.2354317000008,1533.2674308999995,1533.1238876999996,None,0,1,1533.2597010999998,1533.2674308999995,1535.7537219000005,1535.7697540999998,0.8280114000008325,None,1535.7537833999995,1535.7697540999998,1535.7697540999998,1559.1362740000004,space,23.35962180000024,None,,,,,,,,,,,,,,,,,,,,,,,,,,,sub122_AB,001,2026-02-01_17h07.40.396,recognitionstage,,2025.1.1,60.398181048530176,2026-02-01 17h08.26.760291 +0530,
,,,0,0,0,15,frames\Vid15_BB_T.png,frames\Vid15_L.png,['r'],1,[6.743957900000169],[None],4,8.081890900000872,,,,,0,0,0,14,1559.201372900001,,21,Female,Right handed,Corrected to normal,,,,,,,,,,,,,,,,,,,,,,,,,,,,,,,,,,,,,,,,1559.1916478000003,1559.201372900001,1559.201372900001,1559.201372900001,1559.201372900001,1559.201372900001,1559.201372900001,1565.9540287,['r'],1,[6.743957900000169],[None],1565.954898,1565.983721300001,1565.983721300001,1565.983721300001,1574.0530994,4,8.081890900000872,4,8.081890900000872,,,,,,sub122_AB,001,2026-02-01_17h07.40.396,recognitionstage,,2025.1.1,60.398181048530176,2026-02-01 17h08.26.760291 +0530,
,,,1,1,0,10,frames\Vid10_BB_T.png,frames\Vid10_L.png,['l'],1,[6.730664100001377],[None],4,2.1809821000006195,,,,,0,1,1,9,1574.1348768999997,,21,Female,Right handed,Corrected to normal,,,,,,,,,,,,,,,,,,,,,,,,,,,,,,,,,,,,,,,,1574.1148262999995,1574.1348768999997,1574.1348768999997,1574.1348768999997,1574.1348768999997,1574.1348768999997,1574.1348768999997,1580.8714641000006,['l'],1,[6.730664100001377],[None],1580.8724961000007,1580.8858101999995,1580.8858101999995,1580.8858101999995,1583.0696064000003,4,2.1809821000006195,4,2.1809821000006195,,,,,,sub122_AB,001,2026-02-01_17h07.40.396,recognitionstage,,2025.1.1,60.398181048530176,2026-02-01 17h08.26.760291 +0530,
,,,2,2,0,8,frames\Vid8_BB_T.png,frames\Vid8_L.png,['r'],1,[3.814410200000566],[None],4,1.3981242999998358,,,,,0,2,2,7,1583.1230388000004,,21,Female,Right handed,Corrected to normal,,,,,,,,,,,,,,,,,,,,,,,,,,,,,,,,,,,,,,,,1583.1059633000004,1583.1230388000004,1583.1230388000004,1583.1230388000004,1583.1230388000004,1583.1230388000004,1583.1230388000004,1586.9378894000001,['r'],1,[3.814410200000566],[None],1586.9386642000009,1586.9521894000009,1586.9521894000009,1586.9521894000009,1588.3525914000002,4,1.3981242999998358,4,1.3981242999998358,,,,,,sub122_AB,001,2026-02-01_17h07.40.396,recognitionstage,,2025.1.1,60.398181048530176,2026-02-01 17h08.26.760291 +0530,
,,,3,3,0,9,frames\Vid9_EM_T.png,frames\Vid9_L.png,['l'],1,[4.763499899998351],[None],5,1.6154187000011007,,,,,0,3,3,8,1588.4057374000004,,21,Female,Right handed,Corrected to normal,,,,,,,,,,,,,,,,,,,,,,,,,,,,,,,,,,,,,,,,1588.3885264,1588.4057374000004,1588.4057374000004,1588.4057374000004,1588.4057374000004,1588.4057374000004,1588.4057374000004,1593.1708142000007,['l'],1,[4.763499899998351],[None],1593.1715390999998,1593.1857574000005,1593.1857574000005,1593.1857574000005,1594.8033255999999,5,1.6154187000011007,5,1.6154187000011007,,,,,,sub122_AB,001,2026-02-01_17h07.40.396,recognitionstage,,2025.1.1,60.398181048530176,2026-02-01 17h08.26.760291 +0530,
,,,4,4,0,7,frames\Vid7_EM_T.png,frames\Vid7_L.png,['l'],1,[4.593486899999334],[None],5,2.6987181000004057,,,,,0,4,4,6,1594.8719882000005,,21,Female,Right handed,Corrected to normal,,,,,,,,,,,,,,,,,,,,,,,,,,,,,,,,,,,,,,,,1594.848933700001,1594.8719882000005,1594.8719882000005,1594.8719882000005,1594.8719882000005,1594.8719882000005,1594.8719882000005,1599.4704801000007,['l'],1,[4.593486899999334],[None],1599.4713859000003,1599.4861588000003,1599.4861588000003,1599.4861588000003,1602.1864480999993,5,2.6987181000004057,5,2.6987181000004057,,,,,,sub122_AB,001,2026-02-01_17h07.40.396,recognitionstage,,2025.1.1,60.398181048530176,2026-02-01 17h08.26.760291 +0530,
,,,5,5,0,5,frames\Vid5_EM_T.png,frames\Vid5_L.png,['r'],1,[6.698815300000206],[None],3,1.8649511999992683,,,,,0,5,5,4,1602.2385147999994,,21,Female,Right handed,Corrected to normal,,,,,,,,,,,,,,,,,,,,,,,,,,,,,,,,,,,,,,,,1602.2154066000003,1602.2385147999994,1602.2385147999994,1602.2385147999994,1602.2385147999994,1602.2385147999994,1602.2385147999994,1608.9544399999995,['r'],1,[6.698815300000206],[None],1608.9553293000008,1608.9692778000008,1608.9692778000008,1608.9692778000008,1610.8361464000009,3,1.8649511999992683,3,1.8649511999992683,,,,,,sub122_AB,001,2026-02-01_17h07.40.396,recognitionstage,,2025.1.1,60.398181048530176,2026-02-01 17h08.26.760291 +0530,
,,,6,6,0,36,frames\Vid36_BB_T.png,frames\Vid36_L.png,['l'],1,[5.218711599998642],[None],3,1.465084299999944,,,,,0,6,6,35,1610.8706192999998,,21,Female,Right handed,Corrected to normal,,,,,,,,,,,,,,,,,,,,,,,,,,,,,,,,,,,,,,,,1610.8480729000003,1610.8706192999998,1610.8706192999998,1610.8706192999998,1610.8706192999998,1610.8706192999998,1610.8706192999998,1616.1039038,['l'],1,[5.218711599998642],[None],1616.1049951000005,1616.1194722,1616.1194722,1616.1194722,1617.5868394000008,3,1.465084299999944,3,1.465084299999944,,,,,,sub122_AB,001,2026-02-01_17h07.40.396,recognitionstage,,2025.1.1,60.398181048530176,2026-02-01 17h08.26.760291 +0530,
,,,7,7,0,35,frames\Vid35_EM_T.png,frames\Vid35_L.png,['r'],1,[4.021252800001093],[None],5,1.6489569999994274,,,,,0,7,7,34,1617.6040286999996,,21,Female,Right handed,Corrected to normal,,,,,,,,,,,,,,,,,,,,,,,,,,,,,,,,,,,,,,,,1617.5946072000006,1617.6040286999996,1617.6040286999996,1617.6040286999996,1617.6040286999996,1617.6040286999996,1617.6040286999996,1621.6368335000006,['r'],1,[4.021252800001093],[None],1621.6377014999998,1621.6526128000005,1621.6526128000005,1621.6526128000005,1623.3030882000003,5,1.6489569999994274,5,1.6489569999994274,,,,,,sub122_AB,001,2026-02-01_17h07.40.396,recognitionstage,,2025.1.1,60.398181048530176,2026-02-01 17h08.26.760291 +0530,
,,,8,8,0,13,frames\Vid13_BB_T.png,frames\Vid13_L.png,['l'],1,[7.720201199999792],[None],2,1.8977957999995851,,,,,0,8,8,12,1623.3531581999996,,21,Female,Right handed,Corrected to normal,,,,,,,,,,,,,,,,,,,,,,,,,,,,,,,,,,,,,,,,1623.3372995000009,1623.3531581999996,1623.3531581999996,1623.3531581999996,1623.3531581999996,1623.3531581999996,1623.3531581999996,1631.0875410999997,['l'],1,[7.720201199999792],[None],1631.0884428000008,1631.1025288,1631.1025288,1631.1025288,1633.0034840999997,2,1.8977957999995851,2,1.8977957999995851,,,,,,sub122_AB,001,2026-02-01_17h07.40.396,recognitionstage,,2025.1.1,60.398181048530176,2026-02-01 17h08.26.760291 +0530,
,,,9,9,0,1,frames\Vid1_EM_T.png,frames\Vid1_L.png,['l'],1,[7.609103000000687],[None],5,1.6988756000009744,,,,,0,9,9,0,1633.0723801000004,,21,Female,Right handed,Corrected to normal,,,,,,,,,,,,,,,,,,,,,,,,,,,,,,,,,,,,,,,,1633.0498122000008,1633.0723801000004,1633.0723801000004,1633.0723801000004,1633.0723801000004,1633.0723801000004,1633.0723801000004,1640.6880266999997,['l'],1,[7.609103000000687],[None],1640.6888896,1640.7020580000008,1640.7020580000008,1640.7020580000008,1642.4030858999995,5,1.6988756000009744,5,1.6988756000009744,,,,,,sub122_AB,001,2026-02-01_17h07.40.396,recognitionstage,,2025.1.1,60.398181048530176,2026-02-01 17h08.26.760291 +0530,
,,,10,10,0,30,frames\Vid30_EM_T.png,frames\Vid30_L.png,['l'],1,[5.929141799999343],[None],4,1.2660003999990295,,,,,0,10,10,29,1642.4240866,,21,Female,Right handed,Corrected to normal,,,,,,,,,,,,,,,,,,,,,,,,,,,,,,,,,,,,,,,,1642.4116995000004,1642.4240866,1642.4240866,1642.4240866,1642.4240866,1642.4240866,1642.4240866,1648.353688000001,['l'],1,[5.929141799999343],[None],1648.3542288000008,1648.3689305999997,1648.3689305999997,1648.3689305999997,1649.6365834999997,4,1.2660003999990295,4,1.2660003999990295,,,,,,sub122_AB,001,2026-02-01_17h07.40.396,recognitionstage,,2025.1.1,60.398181048530176,2026-02-01 17h08.26.760291 +0530,
,,,11,11,0,31,frames\Vid31_EM_T.png,frames\Vid31_L.png,['l'],1,[9.491120099999534],[None],4,1.3474879000004876,,,,,0,11,11,30,1649.6542924999994,,21,Female,Right handed,Corrected to normal,,,,,,,,,,,,,,,,,,,,,,,,,,,,,,,,,,,,,,,,1649.645138400001,1649.6542924999994,1649.6542924999994,1649.6542924999994,1649.6542924999994,1649.6542924999994,1649.6542924999994,1659.1548103999994,['l'],1,[9.491120099999534],[None],1659.1560081000007,1659.1837904999993,1659.1837904999993,1659.1837904999993,1660.5193964999999,4,1.3474879000004876,4,1.3474879000004876,,,,,,sub122_AB,001,2026-02-01_17h07.40.396,recognitionstage,,2025.1.1,60.398181048530176,2026-02-01 17h08.26.760291 +0530,
,,,12,12,0,21,frames\Vid21_BB_T.png,frames\Vid21_L.png,['l'],1,[5.09724339999957],[None],5,1.3157412999989901,,,,,0,12,12,20,1660.5520687000007,,21,Female,Right handed,Corrected to normal,,,,,,,,,,,,,,,,,,,,,,,,,,,,,,,,,,,,,,,,1660.5311141000002,1660.5520687000007,1660.5520687000007,1660.5520687000007,1660.5520687000007,1660.5520687000007,1660.5520687000007,1665.6546024,['l'],1,[5.09724339999957],[None],1665.6559684999993,1665.6692574999997,1665.6692574999997,1665.6692574999997,1666.9864555999993,5,1.3157412999989901,5,1.3157412999989901,,,,,,sub122_AB,001,2026-02-01_17h07.40.396,recognitionstage,,2025.1.1,60.398181048530176,2026-02-01 17h08.26.760291 +0530,
,,,13,13,0,22,frames\Vid22_EM_T.png,frames\Vid22_L.png,['l'],1,[3.726179900000716],[None],5,0.7959747999993851,,,,,0,13,13,21,1667.0192814000002,,21,Female,Right handed,Corrected to normal,,,,,,,,,,,,,,,,,,,,,,,,,,,,,,,,,,,,,,,,1667.0011606000007,1667.0192814000002,1667.0192814000002,1667.0192814000002,1667.0192814000002,1667.0192814000002,1667.0192814000002,1670.7556205,['l'],1,[3.726179900000716],[None],1670.7571535000006,1670.7844163000009,1670.7844163000009,1670.7844163000009,1671.5700342,5,0.7959747999993851,5,0.7959747999993851,,,,,,sub122_AB,001,2026-02-01_17h07.40.396,recognitionstage,,2025.1.1,60.398181048530176,2026-02-01 17h08.26.760291 +0530,
,,,14,14,0,6,frames\Vid6_BB_T.png,frames\Vid6_L.png,['l'],1,[4.749779800000397],[None],5,0.9649611999993795,,,,,0,14,14,5,1671.6194876999998,,21,Female,Right handed,Corrected to normal,,,,,,,,,,,,,,,,,,,,,,,,,,,,,,,,,,,,,,,,1671.6131545000007,1671.6194876999998,1671.6194876999998,1671.6194876999998,1671.6194876999998,1671.6194876999998,1671.6194876999998,1676.3719775000009,['l'],1,[4.749779800000397],[None],1676.373010700001,1676.3854589000002,1676.3854589000002,1676.3854589000002,1677.352901100001,5,0.9649611999993795,5,0.9649611999993795,,,,,,sub122_AB,001,2026-02-01_17h07.40.396,recognitionstage,,2025.1.1,60.398181048530176,2026-02-01 17h08.26.760291 +0530,
,,,15,15,0,40,frames\Vid40_EM_T.png,frames\Vid40_L.png,['r'],1,[8.138809800000672],[None],2,1.132021600000371,,,,,0,15,15,39,1677.3743458999998,,21,Female,Right handed,Corrected to normal,,,,,,,,,,,,,,,,,,,,,,,,,,,,,,,,,,,,,,,,1677.3606008999996,1677.3743458999998,1677.3743458999998,1677.3743458999998,1677.3743458999998,1677.3743458999998,1677.3743458999998,1685.5202272999995,['r'],1,[8.138809800000672],[None],1685.5209424999994,1685.5357609000002,1685.5357609000002,1685.5357609000002,1686.6698792999996,2,1.132021600000371,2,1.132021600000371,,,,,,sub122_AB,001,2026-02-01_17h07.40.396,recognitionstage,,2025.1.1,60.398181048530176,2026-02-01 17h08.26.760291 +0530,
,,,16,16,0,17,frames\Vid17_BB_T.png,frames\Vid17_L.png,['r'],0,[9.250901500001419],[None],1,1.8304215999996813,,,,,0,16,16,16,1686.7023888999993,,21,Female,Right handed,Corrected to normal,,,,,,,,,,,,,,,,,,,,,,,,,,,,,,,,,,,,,,,,1686.6939729999995,1686.7023888999993,1686.7023888999993,1686.7023888999993,1686.7023888999993,1686.7023888999993,1686.7023888999993,1695.9554769000006,['r'],0,[9.250901500001419],[None],1695.9565082000008,1695.9687823000004,1695.9687823000004,1695.9687823000004,1697.8029170999998,1,1.8304215999996813,1,1.8304215999996813,,,,,,sub122_AB,001,2026-02-01_17h07.40.396,recognitionstage,,2025.1.1,60.398181048530176,2026-02-01 17h08.26.760291 +0530,
,,,17,17,0,28,frames\Vid28_EM_T.png,frames\Vid28_L.png,['r'],1,[2.484547800000655],[None],5,0.8466019000006781,,,,,0,17,17,27,1697.8367407000005,,21,Female,Right handed,Corrected to normal,,,,,,,,,,,,,,,,,,,,,,,,,,,,,,,,,,,,,,,,1697.8140273999998,1697.8367407000005,1697.8367407000005,1697.8367407000005,1697.8367407000005,1697.8367407000005,1697.8367407000005,1700.3220858000004,['r'],1,[2.484547800000655],[None],1700.3231108,1700.3354574000005,1700.3354574000005,1700.3354574000005,1701.1864380000006,5,0.8466019000006781,5,0.8466019000006781,,,,,,sub122_AB,001,2026-02-01_17h07.40.396,recognitionstage,,2025.1.1,60.398181048530176,2026-02-01 17h08.26.760291 +0530,
,,,18,18,0,14,frames\Vid14_BB_T.png,frames\Vid14_L.png,['r'],1,[5.004384400001072],[None],1,1.513697799999136,,,,,0,18,18,13,1701.2528160000002,,21,Female,Right handed,Corrected to normal,,,,,,,,,,,,,,,,,,,,,,,,,,,,,,,,,,,,,,,,1701.2300273,1701.2528160000002,1701.2528160000002,1701.2528160000002,1701.2528160000002,1701.2528160000002,1701.2528160000002,1706.2714725000005,['r'],1,[5.004384400001072],[None],1706.2725659999996,1706.2852882000007,1706.2852882000007,1706.2852882000007,1707.8037186000001,1,1.513697799999136,1,1.513697799999136,,,,,,sub122_AB,001,2026-02-01_17h07.40.396,recognitionstage,,2025.1.1,60.398181048530176,2026-02-01 17h08.26.760291 +0530,
,,,19,19,0,20,frames\Vid20_EM_T.png,frames\Vid20_L.png,['l'],1,[3.98610379999991],[None],5,1.2640088999996806,,,,,0,19,19,19,1707.8231995999995,,21,Female,Right handed,Corrected to normal,,,,,,,,,,,,,,,,,,,,,,,,,,,,,,,,,,,,,,,,1707.8107130000008,1707.8231995999995,1707.8231995999995,1707.8231995999995,1707.8231995999995,1707.8231995999995,1707.8231995999995,1711.8212086000003,['l'],1,[3.98610379999991],[None],1711.8224215999999,1711.835686800001,1711.835686800001,1711.835686800001,1713.1033470000002,5,1.2640088999996806,5,1.2640088999996806,,,,,,sub122_AB,001,2026-02-01_17h07.40.396,recognitionstage,,2025.1.1,60.398181048530176,2026-02-01 17h08.26.760291 +0530,
,,,20,20,0,38,frames\Vid38_EM_T.png,frames\Vid38_L.png,['r'],1,[8.425201900001412],[None],3,0.9315026000003854,,,,,0,20,20,37,1713.1201904000009,,21,Female,Right handed,Corrected to normal,,,,,,,,,,,,,,,,,,,,,,,,,,,,,,,,,,,,,,,,1713.1132178000007,1713.1201904000009,1713.1201904000009,1713.1201904000009,1713.1201904000009,1713.1201904000009,1713.1201904000009,1721.5536174000008,['r'],1,[8.425201900001412],[None],1721.554622900001,1721.5690613000006,1721.5690613000006,1721.5690613000006,1722.502883000001,3,0.9315026000003854,3,0.9315026000003854,,,,,,sub122_AB,001,2026-02-01_17h07.40.396,recognitionstage,,2025.1.1,60.398181048530176,2026-02-01 17h08.26.760291 +0530,
,,,21,21,0,34,frames\Vid34_BB_T.png,frames\Vid34_L.png,['r'],1,[4.065022200000385],[None],5,1.1822300999992876,,,,,0,21,21,33,1722.520312300001,,21,Female,Right handed,Corrected to normal,,,,,,,,,,,,,,,,,,,,,,,,,,,,,,,,,,,,,,,,1722.5114907999996,1722.520312300001,1722.520312300001,1722.520312300001,1722.520312300001,1722.520312300001,1722.520312300001,1726.5871394000005,['r'],1,[4.065022200000385],[None],1726.5878883999994,1726.6023645999994,1726.6023645999994,1726.6023645999994,1727.7864608,5,1.1822300999992876,5,1.1822300999992876,,,,,,sub122_AB,001,2026-02-01_17h07.40.396,recognitionstage,,2025.1.1,60.398181048530176,2026-02-01 17h08.26.760291 +0530,
,,,22,22,0,27,frames\Vid27_BB_T.png,frames\Vid27_L.png,['l'],1,[2.982503100000031],[None],5,0.7644825999996101,,,,,0,22,22,26,1727.8187441999999,,21,Female,Right handed,Corrected to normal,,,,,,,,,,,,,,,,,,,,,,,,,,,,,,,,,,,,,,,,1727.7971118000005,1727.8187441999999,1727.8187441999999,1727.8187441999999,1727.8187441999999,1727.8187441999999,1727.8187441999999,1730.804438700001,['l'],1,[2.982503100000031],[None],1730.8055423000005,1730.8186153000006,1730.8186153000006,1730.8186153000006,1731.5858143999994,5,0.7644825999996101,5,0.7644825999996101,,,,,,sub122_AB,001,2026-02-01_17h07.40.396,recognitionstage,,2025.1.1,60.398181048530176,2026-02-01 17h08.26.760291 +0530,
,,,23,23,0,29,frames\Vid29_BB_T.png,frames\Vid29_L.png,['r'],1,[2.9331426999997348],[None],5,0.9981176999990566,,,,,0,23,23,28,1731.6041755999995,,21,Female,Right handed,Corrected to normal,,,,,,,,,,,,,,,,,,,,,,,,,,,,,,,,,,,,,,,,1731.5959378000007,1731.6041755999995,1731.6041755999995,1731.6041755999995,1731.6041755999995,1731.6041755999995,1731.6041755999995,1734.5383153000002,['r'],1,[2.9331426999997348],[None],1734.5392088999997,1734.5519019000003,1734.5519019000003,1734.5519019000003,1735.5525409000002,5,0.9981176999990566,5,0.9981176999990566,,,,,,sub122_AB,001,2026-02-01_17h07.40.396,recognitionstage,,2025.1.1,60.398181048530176,2026-02-01 17h08.26.760291 +0530,
,,,24,24,0,23,frames\Vid23_EM_T.png,frames\Vid23_L.png,['l'],1,[3.1517016000016156],[None],1,1.0808378999990964,,,,,0,24,24,22,1735.5856053000007,,21,Female,Right handed,Corrected to normal,,,,,,,,,,,,,,,,,,,,,,,,,,,,,,,,,,,,,,,,1735.5662919999995,1735.5856053000007,1735.5856053000007,1735.5856053000007,1735.5856053000007,1735.5856053000007,1735.5856053000007,1738.7379407000008,['l'],1,[3.1517016000016156],[None],1738.7389557000006,1738.7518631000003,1738.7518631000003,1738.7518631000003,1739.8363828000001,1,1.0808378999990964,1,1.0808378999990964,,,,,,sub122_AB,001,2026-02-01_17h07.40.396,recognitionstage,,2025.1.1,60.398181048530176,2026-02-01 17h08.26.760291 +0530,
,,,25,25,0,24,frames\Vid24_BB_T.png,frames\Vid24_L.png,['l'],1,[2.380753800000093],[None],5,1.3120082999994338,,,,,0,25,25,23,1739.8687547000009,,21,Female,Right handed,Corrected to normal,,,,,,,,,,,,,,,,,,,,,,,,,,,,,,,,,,,,,,,,1739.8483376999993,1739.8687547000009,1739.8687547000009,1739.8687547000009,1739.8687547000009,1739.8687547000009,1739.8687547000009,1742.2561958999995,['l'],1,[2.380753800000093],[None],1742.2580214999998,1742.2687614999995,1742.2687614999995,1742.2687614999995,1743.5863141999998,5,1.3120082999994338,5,1.3120082999994338,,,,,,sub122_AB,001,2026-02-01_17h07.40.396,recognitionstage,,2025.1.1,60.398181048530176,2026-02-01 17h08.26.760291 +0530,
,,,26,26,0,11,frames\Vid11_EM_T.png,frames\Vid11_L.png,['l'],1,[3.9164534000010462],[None],3,0.8972905999999057,,,,,0,26,26,10,1743.6368036999993,,21,Female,Right handed,Corrected to normal,,,,,,,,,,,,,,,,,,,,,,,,,,,,,,,,,,,,,,,,1743.6275284000003,1743.6368036999993,1743.6368036999993,1743.6368036999993,1743.6368036999993,1743.6368036999993,1743.6368036999993,1747.555036400001,['l'],1,[3.9164534000010462],[None],1747.5561887000003,1747.568844200001,1747.568844200001,1747.568844200001,1748.4692851,3,0.8972905999999057,3,0.8972905999999057,,,,,,sub122_AB,001,2026-02-01_17h07.40.396,recognitionstage,,2025.1.1,60.398181048530176,2026-02-01 17h08.26.760291 +0530,
,,,27,27,0,18,frames\Vid18_EM_T.png,frames\Vid18_L.png,['r'],1,[2.7366901999994298],[None],5,1.1464415999998891,,,,,0,27,27,17,1748.5045358999996,,21,Female,Right handed,Corrected to normal,,,,,,,,,,,,,,,,,,,,,,,,,,,,,,,,,,,,,,,,1748.4821398000004,1748.5045358999996,1748.5045358999996,1748.5045358999996,1748.5045358999996,1748.5045358999996,1748.5045358999996,1751.2553073,['r'],1,[2.7366901999994298],[None],1751.2565641,1751.2688051999994,1751.2688051999994,1751.2688051999994,1752.4195424000009,5,1.1464415999998891,5,1.1464415999998891,,,,,,sub122_AB,001,2026-02-01_17h07.40.396,recognitionstage,,2025.1.1,60.398181048530176,2026-02-01 17h08.26.760291 +0530,
,,,28,28,0,3,frames\Vid3_BB_T.png,frames\Vid3_L.png,['l'],1,[1.8919630000000325],[None],5,1.1974436000000424,,,,,0,28,28,2,1752.4693294000008,,21,Female,Right handed,Corrected to normal,,,,,,,,,,,,,,,,,,,,,,,,,,,,,,,,,,,,,,,,1752.4590234999996,1752.4693294000008,1752.4693294000008,1752.4693294000008,1752.4693294000008,1752.4693294000008,1752.4693294000008,1754.3712441000007,['l'],1,[1.8919630000000325],[None],1754.3724134000004,1754.3859119000008,1754.3859119000008,1754.3859119000008,1755.5869335000007,5,1.1974436000000424,5,1.1974436000000424,,,,,,sub122_AB,001,2026-02-01_17h07.40.396,recognitionstage,,2025.1.1,60.398181048530176,2026-02-01 17h08.26.760291 +0530,
,,,29,29,0,12,frames\Vid12_EM_T.png,frames\Vid12_L.png,['r'],1,[16.00222919999942],[None],5,1.212711500000296,,,,,0,29,29,11,1755.655197600001,,21,Female,Right handed,Corrected to normal,,,,,,,,,,,,,,,,,,,,,,,,,,,,,,,,,,,,,,,,1755.6310818000002,1755.655197600001,1755.655197600001,1755.655197600001,1755.655197600001,1755.655197600001,1755.655197600001,1771.6723115999994,['r'],1,[16.00222919999942],[None],1771.6735554999996,1771.6854098000003,1771.6854098000003,1771.6854098000003,1772.9036983000005,5,1.212711500000296,5,1.212711500000296,,,,,,sub122_AB,001,2026-02-01_17h07.40.396,recognitionstage,,2025.1.1,60.398181048530176,2026-02-01 17h08.26.760291 +0530,
,,,30,30,0,19,frames\Vid19_BB_T.png,frames\Vid19_L.png,['l'],0,[4.374810200000866],[None],2,1.281473700000788,,,,,0,30,30,18,1772.9384126000004,,21,Female,Right handed,Corrected to normal,,,,,,,,,,,,,,,,,,,,,,,,,,,,,,,,,,,,,,,,1772.9163406000007,1772.9384126000004,1772.9384126000004,1772.9384126000004,1772.9384126000004,1772.9384126000004,1772.9384126000004,1777.3207862,['l'],0,[4.374810200000866],[None],1777.3216307000002,1777.3352407000002,1777.3352407000002,1777.3352407000002,1778.6200422000002,2,1.281473700000788,2,1.281473700000788,,,,,,sub122_AB,001,2026-02-01_17h07.40.396,recognitionstage,,2025.1.1,60.398181048530176,2026-02-01 17h08.26.760291 +0530,
,,,31,31,0,39,frames\Vid39_BB_T.png,frames\Vid39_L.png,['l'],0,[3.556452900000295],[None],3,1.0650256000008085,,,,,0,31,31,38,1778.6526555,,21,Female,Right handed,Corrected to normal,,,,,,,,,,,,,,,,,,,,,,,,,,,,,,,,,,,,,,,,1778.6307338000006,1778.6526555,1778.6526555,1778.6526555,1778.6526555,1778.6526555,1778.6526555,1782.2206509999996,['l'],0,[3.556452900000295],[None],1782.2215245999996,1782.2356719,1782.2356719,1782.2356719,1783.3037208999995,3,1.0650256000008085,3,1.0650256000008085,,,,,,sub122_AB,001,2026-02-01_17h07.40.396,recognitionstage,,2025.1.1,60.398181048530176,2026-02-01 17h08.26.760291 +0530,
,,,32,32,0,4,frames\Vid4_EM_T.png,frames\Vid4_L.png,['r'],0,[2.351869699999952],[None],5,1.0314311000001908,,,,,0,32,32,3,1783.3696409999993,,21,Female,Right handed,Corrected to normal,,,,,,,,,,,,,,,,,,,,,,,,,,,,,,,,,,,,,,,,1783.3490975000004,1783.3696409999993,1783.3696409999993,1783.3696409999993,1783.3696409999993,1783.3696409999993,1783.3696409999993,1785.7375026000009,['r'],0,[2.351869699999952],[None],1785.738556100001,1785.7525053000008,1785.7525053000008,1785.7525053000008,1786.7871054000007,5,1.0314311000001908,5,1.0314311000001908,,,,,,sub122_AB,001,2026-02-01_17h07.40.396,recognitionstage,,2025.1.1,60.398181048530176,2026-02-01 17h08.26.760291 +0530,
,,,33,33,0,16,frames\Vid16_EM_T.png,frames\Vid16_L.png,['l'],1,[2.705955299999914],[None],4,2.098984300000666,,,,,0,33,33,15,1786.8393056000004,,21,Female,Right handed,Corrected to normal,,,,,,,,,,,,,,,,,,,,,,,,,,,,,,,,,,,,,,,,1786.8281662000009,1786.8393056000004,1786.8393056000004,1786.8393056000004,1786.8393056000004,1786.8393056000004,1786.8393056000004,1789.5543613999998,['l'],1,[2.705955299999914],[None],1789.5553479999999,1789.5686170000008,1789.5686170000008,1789.5686170000008,1791.6695794000007,4,2.098984300000666,4,2.098984300000666,,,,,,sub122_AB,001,2026-02-01_17h07.40.396,recognitionstage,,2025.1.1,60.398181048530176,2026-02-01 17h08.26.760291 +0530,
,,,34,34,0,26,frames\Vid26_EM_T.png,frames\Vid26_L.png,['l'],1,[2.5602686000001995],[None],5,0.7141587999994954,,,,,0,34,34,25,1791.7050813999995,,21,Female,Right handed,Corrected to normal,,,,,,,,,,,,,,,,,,,,,,,,,,,,,,,,,,,,,,,,1791.6850163,1791.7050813999995,1791.7050813999995,1791.7050813999995,1791.7050813999995,1791.7050813999995,1791.7050813999995,1794.2714713000005,['l'],1,[2.5602686000001995],[None],1794.2728019999995,1794.2856981000004,1794.2856981000004,1794.2856981000004,1795.0032178000001,5,0.7141587999994954,5,0.7141587999994954,,,,,,sub122_AB,001,2026-02-01_17h07.40.396,recognitionstage,,2025.1.1,60.398181048530176,2026-02-01 17h08.26.760291 +0530,
,,,35,35,0,25,frames\Vid25_BB_T.png,frames\Vid25_L.png,['r'],1,[7.829830099999526],[None],5,0.9137332999998762,,,,,0,35,35,24,1795.0357327000002,,21,Female,Right handed,Corrected to normal,,,,,,,,,,,,,,,,,,,,,,,,,,,,,,,,,,,,,,,,1795.0139486999997,1795.0357327000002,1795.0357327000002,1795.0357327000002,1795.0357327000002,1795.0357327000002,1795.0357327000002,1802.8716270000004,['r'],1,[7.829830099999526],[None],1802.8729757,1802.8857196999998,1802.8857196999998,1802.8857196999998,1803.803124,5,0.9137332999998762,5,0.9137332999998762,,,,,,sub122_AB,001,2026-02-01_17h07.40.396,recognitionstage,,2025.1.1,60.398181048530176,2026-02-01 17h08.26.760291 +0530,
,,,36,36,0,37,frames\Vid37_BB_T.png,frames\Vid37_L.png,['l'],1,[2.5259760999997525],[None],5,0.7827966999993805,,,,,0,36,36,36,1803.8352694999994,,21,Female,Right handed,Corrected to normal,,,,,,,,,,,,,,,,,,,,,,,,,,,,,,,,,,,,,,,,1803.8170222000008,1803.8352694999994,1803.8352694999994,1803.8352694999994,1803.8352694999994,1803.8352694999994,1803.8352694999994,1806.3705704000004,['l'],1,[2.5259760999997525],[None],1806.371598400001,1806.3857224000003,1806.3857224000003,1806.3857224000003,1807.1701463999998,5,0.7827966999993805,5,0.7827966999993805,,,,,,sub122_AB,001,2026-02-01_17h07.40.396,recognitionstage,,2025.1.1,60.398181048530176,2026-02-01 17h08.26.760291 +0530,
,,,37,37,0,32,frames\Vid32_EM_T.png,frames\Vid32_L.png,['l'],1,[2.6550760000009177],[None],1,1.514571600000636,,,,,0,37,37,31,1807.2021812000003,,21,Female,Right handed,Corrected to normal,,,,,,,,,,,,,,,,,,,,,,,,,,,,,,,,,,,,,,,,1807.1841241000002,1807.2021812000003,1807.2021812000003,1807.2021812000003,1807.2021812000003,1807.2021812000003,1807.2021812000003,1809.8711695000002,['l'],1,[2.6550760000009177],[None],1809.8723117999998,1809.885661800001,1809.885661800001,1809.885661800001,1811.4029821999993,1,1.514571600000636,1,1.514571600000636,,,,,,sub122_AB,001,2026-02-01_17h07.40.396,recognitionstage,,2025.1.1,60.398181048530176,2026-02-01 17h08.26.760291 +0530,
,,,38,38,0,2,frames\Vid2_BB_T.png,frames\Vid2_L.png,['r'],1,[2.396618500000841],[None],5,0.830552199999147,,,,,0,38,38,1,1811.4528666999995,,21,Female,Right handed,Corrected to normal,,,,,,,,,,,,,,,,,,,,,,,,,,,,,,,,,,,,,,,,1811.4421593999996,1811.4528666999995,1811.4528666999995,1811.4528666999995,1811.4528666999995,1811.4528666999995,1811.4528666999995,1813.8550450000002,['r'],1,[2.396618500000841],[None],1813.8565992999993,1813.8690086000006,1813.8690086000006,1813.8690086000006,1814.7035417000006,5,0.830552199999147,5,0.830552199999147,,,,,,sub122_AB,001,2026-02-01_17h07.40.396,recognitionstage,,2025.1.1,60.398181048530176,2026-02-01 17h08.26.760291 +0530,
,,,39,39,0,33,frames\Vid33_BB_T.png,frames\Vid33_L.png,['r'],1,[11.965770600001633],[None],5,1.0467298999992636,,,,,0,39,39,32,1814.7235371999996,,21,Female,Right handed,Corrected to normal,,,,,,,,,,,,,,,,,,,,,,,,,,,,,,,,,,,,,,,,1814.7129987000008,1814.7235371999996,1814.7235371999996,1814.7235371999996,1814.7235371999996,1814.7235371999996,1814.7235371999996,1826.7051274999994,['r'],1,[11.965770600001633],[None],1826.706462,1826.7185995,1826.7185995,1826.7185995,1827.7703156999996,5,1.0467298999992636,5,1.0467298999992636,,,,,,sub122_AB,001,2026-02-01_17h07.40.396,recognitionstage,,2025.1.1,60.398181048530176,2026-02-01 17h08.26.760291 +0530,
,,,,,,,,,,,,,,,,,,,,,,,,,21,Female,Right handed,Corrected to normal,,,,,,,,,,,,,,,,,,,,,,,,,,,,,,,,,,,,,,,,,,,,,,,,,,,,,,,,,,,,,1827.7704341000008,1827.7858316000002,1827.7858316000002,1847.7722003,None,sub122_AB,001,2026-02-01_17h07.40.396,recognitionstage,,2025.1.1,60.398181048530176,2026-02-01 17h08.26.760291 +0530,
