path,duration,is_repeat,thisN,thisTrialN,thisRepN,movie_id,target_img,lure_img,resp.keys,resp.corr,resp.rt,resp.duration,conf_radio.response,conf_radio.rt,movie.thisRepN,movie.thisTrialN,movie.thisN,movie.thisIndex,recogloop.thisRepN,recogloop.thisTrialN,recogloop.thisN,recogloop.thisIndex,thisRow.t,notes,age,gender,handedness,vision,caffeine_2h,alcohol_smoke_12h,demographics.started,demographics.stopped,Instructions.started,text1.started,key_resp.started,Instructions.stopped,key_resp.keys,key_resp.rt,key_resp.duration,instruction_2.started,text2.started,key_resp_2.started,instruction_2.stopped,key_resp_2.keys,key_resp_2.rt,key_resp_2.duration,Videos.started,movie_2.started,vigilance_resp.started,movie_2.stopped,Videos.stopped,movie.vigilance_resp.keys,vigilance_pressed,vigilance_correct,ISI.started,text.started,ISI.stopped,text.stopped,movie.vigilance_resp.rt,movie.vigilance_resp.duration,recognition.started,text_4.started,key_resp_3.started,recognition.stopped,key_resp_3.keys,key_resp_3.rt,key_resp_3.duration,recognition_task.started,leftimage.started,rightimage.started,resp.started,frames_question.started,right_label.started,left_label.started,recognition_task.stopped,recogloop.resp.keys,recogloop.resp.corr,recogloop.resp.rt,recogloop.resp.duration,confidence.started,conf_text.started,conf_radio.started,conf_label.started,confidence.stopped,recogloop.conf_radio.response,recogloop.conf_radio.rt,confidence,confidence_rt,thank_you.started,text_6.started,key_resp_4.started,thank_you.stopped,key_resp_4.keys,key_resp_4.rt,key_resp_4.duration,participant,session,date,expName,expVersion,psychopyVersion,frameRate,expStart,...105
,,,,,,,,,,,,,,,,,,,,,,,,,23,Male,Right handed,Normal,Caffeine consumed in last 2 hours?,Alcohol or smoking in last 12 hours?,0.006599299988010898,0.00908970000455156,,,,,,,,,,,,,,,,,,,,,,,,,,,,,,,,,,,,,,,,,,,,,,,,,,,,,,,,,,,,,,,,sub161_NB,001,2026-02-03_20h22.06.157,recognitionstage,,2025.1.1,59.559190518457456,2026-02-03 20h22.32.390827 +0530,
,,,,,,,,,,,,,,,,,,,,,,,,,23,Male,Right handed,Normal,,,,,0.00911039998754859,0.02571340001304634,0.02571340001304634,5.062027400010265,space,5.032974300003843,None,,,,,,,,,,,,,,,,,,,,,,,,,,,,,,,,,,,,,,,,,,,,,,,,,,,,,,,,,sub161_NB,001,2026-02-03_20h22.06.157,recognitionstage,,2025.1.1,59.559190518457456,2026-02-03 20h22.32.390827 +0530,
,,,,,,,,,,,,,,,,,,,,,,,,,23,Male,Right handed,Normal,,,,,,,,,,,,5.06207970000105,5.07679290001397,5.07679290001397,8.395363099989481,space,3.317779300006805,None,,,,,,,,,,,,,,,,,,,,,,,,,,,,,,,,,,,,,,,,,,,,,,,,,,sub161_NB,001,2026-02-03_20h22.06.157,recognitionstage,,2025.1.1,59.559190518457456,2026-02-03 20h22.32.390827 +0530,
Trimmed_videos/natural_1.mp4,19,0,44,44,0,,,,,,,,,,0,44,44,0,,,,,1582.1079146999982,,23,Male,Right handed,Normal,,,,,,,,,,,,,,,,,,,1582.0576769000036,1582.1079146999982,1582.1079146999982,1601.3407836999977,1601.194892600004,None,0,1,1601.3312486000068,1601.3407836999977,1603.8265249000106,1603.8426883000066,11.10944619998918,0.19206580001628026,1603.8266015000117,1603.8426883000066,1603.8426883000066,1613.2758139999933,space,9.431241099984618,None,,,,,,,,,,,,,,,,,,,,,,,,,,,,,sub161_NB,001,2026-02-03_20h22.06.157,recognitionstage,,2025.1.1,59.559190518457456,2026-02-03 20h22.32.390827 +0530,
,,,0,0,0,31,frames\Vid31_EM_T.png,frames\Vid31_L.png,['r'],1,[5.9911782999988645],[None],3,8.630979199981084,,,,,0,0,0,30,1613.306746999995,,23,Male,Right handed,Normal,,,,,,,,,,,,,,,,,,,,,,,,,,,,,,,,,,,,,,,,1613.2920516000013,1613.306746999995,1613.306746999995,1613.306746999995,1613.306746999995,1613.306746999995,1613.306746999995,1619.3103684000089,['r'],1,[5.9911782999988645],[None],1619.3114858999907,1619.3251903000055,1619.3251903000055,1619.3251903000055,1627.9592694999883,3,8.630979199981084,3,8.630979199981084,,,,,,,,sub161_NB,001,2026-02-03_20h22.06.157,recognitionstage,,2025.1.1,59.559190518457456,2026-02-03 20h22.32.390827 +0530,
,,,1,1,0,19,frames\Vid19_BB_T.png,frames\Vid19_L.png,['l'],1,[4.035602099989774],[None],2,3.448788900015643,,,,,0,1,1,18,1627.9903250999923,,23,Male,Right handed,Normal,,,,,,,,,,,,,,,,,,,,,,,,,,,,,,,,,,,,,,,,1627.9763056999946,1627.9903250999923,1627.9903250999923,1627.9903250999923,1627.9903250999923,1627.9903250999923,1627.9903250999923,1632.0270460000029,['l'],1,[4.035602099989774],[None],1632.0281216000149,1632.0419953000091,1632.0419953000091,1632.0419953000091,1635.492221099994,2,3.448788900015643,2,3.448788900015643,,,,,,,,sub161_NB,001,2026-02-03_20h22.06.157,recognitionstage,,2025.1.1,59.559190518457456,2026-02-03 20h22.32.390827 +0530,
,,,2,2,0,2,frames\Vid2_BB_T.png,frames\Vid2_L.png,['r'],1,[3.0275904000154696],[None],5,1.1821270000073127,,,,,0,2,2,1,1635.5423573000007,,23,Male,Right handed,Normal,,,,,,,,,,,,,,,,,,,,,,,,,,,,,,,,,,,,,,,,1635.5330192999972,1635.5423573000007,1635.5423573000007,1635.5423573000007,1635.5423573000007,1635.5423573000007,1635.5423573000007,1638.5768175999983,['r'],1,[3.0275904000154696],[None],1638.5777617999993,1638.5921009999875,1638.5921009999875,1638.5921009999875,1639.775432399998,5,1.1821270000073127,5,1.1821270000073127,,,,,,,,sub161_NB,001,2026-02-03_20h22.06.157,recognitionstage,,2025.1.1,59.559190518457456,2026-02-03 20h22.32.390827 +0530,
,,,3,3,0,18,frames\Vid18_EM_T.png,frames\Vid18_L.png,['l'],1,[4.682944900006987],[None],2,1.8317066000017803,,,,,0,3,3,17,1639.8070354000083,,23,Male,Right handed,Normal,,,,,,,,,,,,,,,,,,,,,,,,,,,,,,,,,,,,,,,,1639.8023570000078,1639.8070354000083,1639.8070354000083,1639.8070354000083,1639.8070354000083,1639.8070354000083,1639.8070354000083,1644.4939742000133,['l'],1,[4.682944900006987],[None],1644.4947541000147,1644.508386100002,1644.508386100002,1644.508386100002,1646.3418261999905,2,1.8317066000017803,2,1.8317066000017803,,,,,,,,sub161_NB,001,2026-02-03_20h22.06.157,recognitionstage,,2025.1.1,59.559190518457456,2026-02-03 20h22.32.390827 +0530,
,,,4,4,0,23,frames\Vid23_EM_T.png,frames\Vid23_L.png,['l'],1,[2.6668546999862883],[None],5,1.8975654999958351,,,,,0,4,4,22,1646.3750504000054,,23,Male,Right handed,Normal,,,,,,,,,,,,,,,,,,,,,,,,,,,,,,,,,,,,,,,,1646.3559345999965,1646.3750504000054,1646.3750504000054,1646.3750504000054,1646.3750504000054,1646.3750504000054,1646.3750504000054,1649.0438839000126,['l'],1,[2.6668546999862883],[None],1649.044954300014,1649.0584192000097,1649.0584192000097,1649.0584192000097,1650.9589974000119,5,1.8975654999958351,5,1.8975654999958351,,,,,,,,sub161_NB,001,2026-02-03_20h22.06.157,recognitionstage,,2025.1.1,59.559190518457456,2026-02-03 20h22.32.390827 +0530,
,,,5,5,0,6,frames\Vid6_BB_T.png,frames\Vid6_L.png,['r'],1,[5.2962249999982305],[None],5,2.6480982000066433,,,,,0,5,5,5,1651.0257372999913,,23,Male,Right handed,Normal,,,,,,,,,,,,,,,,,,,,,,,,,,,,,,,,,,,,,,,,1651.003157500003,1651.0257372999913,1651.0257372999913,1651.0257372999913,1651.0257372999913,1651.0257372999913,1651.0257372999913,1656.3271533999941,['r'],1,[5.2962249999982305],[None],1656.3286615000106,1656.3417979000078,1656.3417979000078,1656.3417979000078,1658.992490100005,5,2.6480982000066433,5,2.6480982000066433,,,,,,,,sub161_NB,001,2026-02-03_20h22.06.157,recognitionstage,,2025.1.1,59.559190518457456,2026-02-03 20h22.32.390827 +0530,
,,,6,6,0,12,frames\Vid12_EM_T.png,frames\Vid12_L.png,['l'],1,[2.243882200011285],[None],4,1.463096499996027,,,,,0,6,6,11,1659.0621358999924,,23,Male,Right handed,Normal,,,,,,,,,,,,,,,,,,,,,,,,,,,,,,,,,,,,,,,,1659.0373866000155,1659.0621358999924,1659.0621358999924,1659.0621358999924,1659.0621358999924,1659.0621358999924,1659.0621358999924,1661.3115783999965,['l'],1,[2.243882200011285],[None],1661.3128843000159,1661.339589100011,1661.339589100011,1661.339589100011,1662.7927200999984,4,1.463096499996027,4,1.463096499996027,,,,,,,,sub161_NB,001,2026-02-03_20h22.06.157,recognitionstage,,2025.1.1,59.559190518457456,2026-02-03 20h22.32.390827 +0530,
,,,7,7,0,20,frames\Vid20_EM_T.png,frames\Vid20_L.png,['r'],1,[2.997185999993235],[None],3,1.9983410999993794,,,,,0,7,7,19,1662.8125776000088,,23,Male,Right handed,Normal,,,,,,,,,,,,,,,,,,,,,,,,,,,,,,,,,,,,,,,,1662.7999536000134,1662.8125776000088,1662.8125776000088,1662.8125776000088,1662.8125776000088,1662.8125776000088,1662.8125776000088,1665.8269299000094,['r'],1,[2.997185999993235],[None],1665.8277723999927,1665.841319900006,1665.841319900006,1665.841319900006,1667.8424545000016,3,1.9983410999993794,3,1.9983410999993794,,,,,,,,sub161_NB,001,2026-02-03_20h22.06.157,recognitionstage,,2025.1.1,59.559190518457456,2026-02-03 20h22.32.390827 +0530,
,,,8,8,0,22,frames\Vid22_EM_T.png,frames\Vid22_L.png,['r'],1,[2.9593939000042155],[None],4,1.563121199986199,,,,,0,8,8,21,1667.874593799992,,23,Male,Right handed,Normal,,,,,,,,,,,,,,,,,,,,,,,,,,,,,,,,,,,,,,,,1667.856929600006,1667.874593799992,1667.874593799992,1667.874593799992,1667.874593799992,1667.874593799992,1667.874593799992,1670.8447019000014,['r'],1,[2.9593939000042155],[None],1670.8461085000017,1670.8583701000025,1670.8583701000025,1670.8583701000025,1672.4257967000012,4,1.563121199986199,4,1.563121199986199,,,,,,,,sub161_NB,001,2026-02-03_20h22.06.157,recognitionstage,,2025.1.1,59.559190518457456,2026-02-03 20h22.32.390827 +0530,
,,,9,9,0,11,frames\Vid11_EM_T.png,frames\Vid11_L.png,['r'],1,[2.734351599996444],[None],5,1.3151332999987062,,,,,0,9,9,10,1672.475569000002,,23,Male,Right handed,Normal,,,,,,,,,,,,,,,,,,,,,,,,,,,,,,,,,,,,,,,,1672.4687809000025,1672.475569000002,1672.475569000002,1672.475569000002,1672.475569000002,1672.475569000002,1672.475569000002,1675.2104039000114,['r'],1,[2.734351599996444],[None],1675.211382700014,1675.2250604,1675.2250604,1675.2250604,1676.5420975000015,5,1.3151332999987062,5,1.3151332999987062,,,,,,,,sub161_NB,001,2026-02-03_20h22.06.157,recognitionstage,,2025.1.1,59.559190518457456,2026-02-03 20h22.32.390827 +0530,
,,,10,10,0,21,frames\Vid21_BB_T.png,frames\Vid21_L.png,['r'],1,[3.688794499990763],[None],4,0.9986199999984819,,,,,0,10,10,20,1676.577190400014,,23,Male,Right handed,Normal,,,,,,,,,,,,,,,,,,,,,,,,,,,,,,,,,,,,,,,,1676.5538375999895,1676.577190400014,1676.577190400014,1676.577190400014,1676.577190400014,1676.577190400014,1676.577190400014,1680.2769566999923,['r'],1,[3.688794499990763],[None],1680.2781055000087,1680.2916399000096,1680.2916399000096,1680.2916399000096,1681.2928493999934,4,0.9986199999984819,4,0.9986199999984819,,,,,,,,sub161_NB,001,2026-02-03_20h22.06.157,recognitionstage,,2025.1.1,59.559190518457456,2026-02-03 20h22.32.390827 +0530,
,,,11,11,0,38,frames\Vid38_EM_T.png,frames\Vid38_L.png,['r'],1,[3.069406299997354],[None],4,0.9472763000230771,,,,,0,11,11,37,1681.3248601999949,,23,Male,Right handed,Normal,,,,,,,,,,,,,,,,,,,,,,,,,,,,,,,,,,,,,,,,1681.3049915999873,1681.3248601999949,1681.3248601999949,1681.3248601999949,1681.3248601999949,1681.3248601999949,1681.3248601999949,1684.4107132999925,['r'],1,[3.069406299997354],[None],1684.411663100007,1684.424622599996,1684.424622599996,1684.424622599996,1685.3763824999915,4,0.9472763000230771,4,0.9472763000230771,,,,,,,,sub161_NB,001,2026-02-03_20h22.06.157,recognitionstage,,2025.1.1,59.559190518457456,2026-02-03 20h22.32.390827 +0530,
,,,12,12,0,40,frames\Vid40_EM_T.png,frames\Vid40_L.png,['r'],1,[4.297342900012154],[None],2,1.2298728000023402,,,,,0,12,12,39,1685.3928031999967,,23,Male,Right handed,Normal,,,,,,,,,,,,,,,,,,,,,,,,,,,,,,,,,,,,,,,,1685.3856754000008,1685.3928031999967,1685.3928031999967,1685.3928031999967,1685.3928031999967,1685.3928031999967,1685.3928031999967,1689.6946880999894,['r'],1,[4.297342900012154],[None],1689.6965437000035,1689.7230707000126,1689.7230707000126,1689.7230707000126,1690.9423146999907,2,1.2298728000023402,2,1.2298728000023402,,,,,,,,sub161_NB,001,2026-02-03_20h22.06.157,recognitionstage,,2025.1.1,59.559190518457456,2026-02-03 20h22.32.390827 +0530,
,,,13,13,0,35,frames\Vid35_EM_T.png,frames\Vid35_L.png,['r'],1,[2.31414329999825],[None],5,1.5996700999967288,,,,,0,13,13,34,1690.9597028999997,,23,Male,Right handed,Normal,,,,,,,,,,,,,,,,,,,,,,,,,,,,,,,,,,,,,,,,1690.9500434999936,1690.9597028999997,1690.9597028999997,1690.9597028999997,1690.9597028999997,1690.9597028999997,1690.9597028999997,1693.2767682000122,['r'],1,[2.31414329999825],[None],1693.277514299989,1693.2912165999878,1693.2912165999878,1693.2912165999878,1694.8927953999955,5,1.5996700999967288,5,1.5996700999967288,,,,,,,,sub161_NB,001,2026-02-03_20h22.06.157,recognitionstage,,2025.1.1,59.559190518457456,2026-02-03 20h22.32.390827 +0530,
,,,14,14,0,10,frames\Vid10_BB_T.png,frames\Vid10_L.png,['r'],1,[1.7714722999953665],[None],5,1.0648513000051025,,,,,0,14,14,9,1694.9585113000066,,23,Male,Right handed,Normal,,,,,,,,,,,,,,,,,,,,,,,,,,,,,,,,,,,,,,,,1694.937357399991,1694.9585113000066,1694.9585113000066,1694.9585113000066,1694.9585113000066,1694.9585113000066,1694.9585113000066,1696.7445604999957,['r'],1,[1.7714722999953665],[None],1696.7456520000123,1696.7578416999895,1696.7578416999895,1696.7578416999895,1697.8252609999909,5,1.0648513000051025,5,1.0648513000051025,,,,,,,,sub161_NB,001,2026-02-03_20h22.06.157,recognitionstage,,2025.1.1,59.559190518457456,2026-02-03 20h22.32.390827 +0530,
,,,15,15,0,36,frames\Vid36_BB_T.png,frames\Vid36_L.png,['l'],0,[3.2284074000199325],[None],2,1.0648463999968953,,,,,0,15,15,35,1697.8616067999974,,23,Male,Right handed,Normal,,,,,,,,,,,,,,,,,,,,,,,,,,,,,,,,,,,,,,,,1697.840197499987,1697.8616067999974,1697.8616067999974,1697.8616067999974,1697.8616067999974,1697.8616067999974,1697.8616067999974,1701.0936572999926,['l'],0,[3.2284074000199325],[None],1701.094570699992,1701.108409700013,1701.108409700013,1701.108409700013,1702.175475199998,2,1.0648463999968953,2,1.0648463999968953,,,,,,,,sub161_NB,001,2026-02-03_20h22.06.157,recognitionstage,,2025.1.1,59.559190518457456,2026-02-03 20h22.32.390827 +0530,
,,,16,16,0,8,frames\Vid8_BB_T.png,frames\Vid8_L.png,['l'],0,[2.584347099997103],[None],5,1.5139578999951482,,,,,0,16,16,7,1702.2257416000066,,23,Male,Right handed,Normal,,,,,,,,,,,,,,,,,,,,,,,,,,,,,,,,,,,,,,,,1702.2121419000032,1702.2257416000066,1702.2257416000066,1702.2257416000066,1702.2257416000066,1702.2257416000066,1702.2257416000066,1704.8117354999995,['l'],0,[2.584347099997103],[None],1704.812922400015,1704.8398443000042,1704.8398443000042,1704.8398443000042,1706.3418848000001,5,1.5139578999951482,5,1.5139578999951482,,,,,,,,sub161_NB,001,2026-02-03_20h22.06.157,recognitionstage,,2025.1.1,59.559190518457456,2026-02-03 20h22.32.390827 +0530,
,,,17,17,0,37,frames\Vid37_BB_T.png,frames\Vid37_L.png,['r'],1,[2.520423899986781],[None],5,1.1489201000076719,,,,,0,17,17,36,1706.3774838999962,,23,Male,Right handed,Normal,,,,,,,,,,,,,,,,,,,,,,,,,,,,,,,,,,,,,,,,1706.3529713999887,1706.3774838999962,1706.3774838999962,1706.3774838999962,1706.3774838999962,1706.3774838999962,1706.3774838999962,1708.9108084999898,['r'],1,[2.520423899986781],[None],1708.9120918000117,1708.9251543999999,1708.9251543999999,1708.9251543999999,1710.0755680000002,5,1.1489201000076719,5,1.1489201000076719,,,,,,,,sub161_NB,001,2026-02-03_20h22.06.157,recognitionstage,,2025.1.1,59.559190518457456,2026-02-03 20h22.32.390827 +0530,
,,,18,18,0,32,frames\Vid32_EM_T.png,frames\Vid32_L.png,['l'],1,[2.3177154999866616],[None],4,1.5137016999942716,,,,,0,18,18,31,1710.1081011999922,,23,Male,Right handed,Normal,,,,,,,,,,,,,,,,,,,,,,,,,,,,,,,,,,,,,,,,1710.0867639000062,1710.1081011999922,1710.1081011999922,1710.1081011999922,1710.1081011999922,1710.1081011999922,1710.1081011999922,1712.4277323000133,['l'],1,[2.3177154999866616],[None],1712.4285808000132,1712.4412970000121,1712.4412970000121,1712.4412970000121,1713.9590082000068,4,1.5137016999942716,4,1.5137016999942716,,,,,,,,sub161_NB,001,2026-02-03_20h22.06.157,recognitionstage,,2025.1.1,59.559190518457456,2026-02-03 20h22.32.390827 +0530,
,,,19,19,0,27,frames\Vid27_BB_T.png,frames\Vid27_L.png,['l'],1,[4.3298315000138246],[None],2,1.5320848999836016,,,,,0,19,19,26,1713.992020900012,,23,Male,Right handed,Normal,,,,,,,,,,,,,,,,,,,,,,,,,,,,,,,,,,,,,,,,1713.9710658999975,1713.992020900012,1713.992020900012,1713.992020900012,1713.992020900012,1713.992020900012,1713.992020900012,1718.3266907999932,['l'],1,[4.3298315000138246],[None],1718.3277331000136,1718.3417126999993,1718.3417126999993,1718.3417126999993,1719.8761038999946,2,1.5320848999836016,2,1.5320848999836016,,,,,,,,sub161_NB,001,2026-02-03_20h22.06.157,recognitionstage,,2025.1.1,59.559190518457456,2026-02-03 20h22.32.390827 +0530,
,,,20,20,0,25,frames\Vid25_BB_T.png,frames\Vid25_L.png,['l'],1,[2.5820567999908235],[None],3,0.9466651999973692,,,,,0,20,20,24,1719.9079491999873,,23,Male,Right handed,Normal,,,,,,,,,,,,,,,,,,,,,,,,,,,,,,,,,,,,,,,,1719.8879232000036,1719.9079491999873,1719.9079491999873,1719.9079491999873,1719.9079491999873,1719.9079491999873,1719.9079491999873,1722.4947317999904,['l'],1,[2.5820567999908235],[None],1722.4959661999892,1722.5078741000034,1722.5078741000034,1722.5078741000034,1723.45953990001,3,0.9466651999973692,3,0.9466651999973692,,,,,,,,sub161_NB,001,2026-02-03_20h22.06.157,recognitionstage,,2025.1.1,59.559190518457456,2026-02-03 20h22.32.390827 +0530,
,,,21,21,0,29,frames\Vid29_BB_T.png,frames\Vid29_L.png,['l'],0,[2.2785178999765776],[None],1,1.4471796000143513,,,,,0,21,21,28,1723.491497799987,,23,Male,Right handed,Normal,,,,,,,,,,,,,,,,,,,,,,,,,,,,,,,,,,,,,,,,1723.471787699993,1723.491497799987,1723.491497799987,1723.491497799987,1723.491497799987,1723.491497799987,1723.491497799987,1725.778575400007,['l'],0,[2.2785178999765776],[None],1725.7798907000106,1725.806232700008,1725.806232700008,1725.806232700008,1727.242192100006,1,1.4471796000143513,1,1.4471796000143513,,,,,,,,sub161_NB,001,2026-02-03_20h22.06.157,recognitionstage,,2025.1.1,59.559190518457456,2026-02-03 20h22.32.390827 +0530,
,,,22,22,0,26,frames\Vid26_EM_T.png,frames\Vid26_L.png,['r'],1,[2.359017099981429],[None],5,1.4982527999964077,,,,,0,22,22,25,1727.2747585999896,,23,Male,Right handed,Normal,,,,,,,,,,,,,,,,,,,,,,,,,,,,,,,,,,,,,,,,1727.2585786000127,1727.2747585999896,1727.2747585999896,1727.2747585999896,1727.2747585999896,1727.2747585999896,1727.2747585999896,1729.6431412000093,['r'],1,[2.359017099981429],[None],1729.6440106999944,1729.6582852000138,1729.6582852000138,1729.6582852000138,1731.159361099999,5,1.4982527999964077,5,1.4982527999964077,,,,,,,,sub161_NB,001,2026-02-03_20h22.06.157,recognitionstage,,2025.1.1,59.559190518457456,2026-02-03 20h22.32.390827 +0530,
,,,23,23,0,15,frames\Vid15_BB_T.png,frames\Vid15_L.png,['r'],1,[2.29605370000354],[None],5,0.9487057999940589,,,,,0,23,23,14,1731.225762499991,,23,Male,Right handed,Normal,,,,,,,,,,,,,,,,,,,,,,,,,,,,,,,,,,,,,,,,1731.2071969000099,1731.225762499991,1731.225762499991,1731.225762499991,1731.225762499991,1731.225762499991,1731.225762499991,1733.5264239000098,['r'],1,[2.29605370000354],[None],1733.5272715000028,1733.542055900005,1733.542055900005,1733.542055900005,1734.492415399989,5,0.9487057999940589,5,0.9487057999940589,,,,,,,,sub161_NB,001,2026-02-03_20h22.06.157,recognitionstage,,2025.1.1,59.559190518457456,2026-02-03 20h22.32.390827 +0530,
,,,24,24,0,34,frames\Vid34_BB_T.png,frames\Vid34_L.png,['r'],1,[3.874290999985533],[None],3,0.9487518999958411,,,,,0,24,24,33,1734.5275487999897,,23,Male,Right handed,Normal,,,,,,,,,,,,,,,,,,,,,,,,,,,,,,,,,,,,,,,,1734.5028712000058,1734.5275487999897,1734.5275487999897,1734.5275487999897,1734.5275487999897,1734.5275487999897,1734.5275487999897,1738.4104596000107,['r'],1,[3.874290999985533],[None],1738.4112707999884,1738.4400835999986,1738.4400835999986,1738.4400835999986,1739.375168700004,3,0.9487518999958411,3,0.9487518999958411,,,,,,,,sub161_NB,001,2026-02-03_20h22.06.157,recognitionstage,,2025.1.1,59.559190518457456,2026-02-03 20h22.32.390827 +0530,
,,,25,25,0,3,frames\Vid3_BB_T.png,frames\Vid3_L.png,['l'],1,[2.416609600011725],[None],4,1.3973712000006344,,,,,0,25,25,2,1739.4252826000156,,23,Male,Right handed,Normal,,,,,,,,,,,,,,,,,,,,,,,,,,,,,,,,,,,,,,,,1739.413147299987,1739.4252826000156,1739.4252826000156,1739.4252826000156,1739.4252826000156,1739.4252826000156,1739.4252826000156,1741.8450325000158,['l'],1,[2.416609600011725],[None],1741.846280800004,1741.8580765000079,1741.8580765000079,1741.8580765000079,1743.25905719999,4,1.3973712000006344,4,1.3973712000006344,,,,,,,,sub161_NB,001,2026-02-03_20h22.06.157,recognitionstage,,2025.1.1,59.559190518457456,2026-02-03 20h22.32.390827 +0530,
,,,26,26,0,9,frames\Vid9_EM_T.png,frames\Vid9_L.png,['l'],1,[2.2910550000087824],[None],4,1.0321300000068732,,,,,0,26,26,8,1743.3109816999931,,23,Male,Right handed,Normal,,,,,,,,,,,,,,,,,,,,,,,,,,,,,,,,,,,,,,,,1743.2961221000005,1743.3109816999931,1743.3109816999931,1743.3109816999931,1743.3109816999931,1743.3109816999931,1743.3109816999931,1745.6101584999997,['l'],1,[2.2910550000087824],[None],1745.6110608000017,1745.6252658999874,1745.6252658999874,1745.6252658999874,1746.659431100008,4,1.0321300000068732,4,1.0321300000068732,,,,,,,,sub161_NB,001,2026-02-03_20h22.06.157,recognitionstage,,2025.1.1,59.559190518457456,2026-02-03 20h22.32.390827 +0530,
,,,27,27,0,7,frames\Vid7_EM_T.png,frames\Vid7_L.png,['r'],0,[2.87509700001101],[None],1,1.1468750000058208,,,,,0,27,27,6,1746.7109612000058,,23,Male,Right handed,Normal,,,,,,,,,,,,,,,,,,,,,,,,,,,,,,,,,,,,,,,,1746.7021723999933,1746.7109612000058,1746.7109612000058,1746.7109612000058,1746.7109612000058,1746.7109612000058,1746.7109612000058,1749.5951353000128,['r'],0,[2.87509700001101],[None],1749.5963990000018,1749.622980199987,1749.622980199987,1749.622980199987,1750.7590125999996,1,1.1468750000058208,1,1.1468750000058208,,,,,,,,sub161_NB,001,2026-02-03_20h22.06.157,recognitionstage,,2025.1.1,59.559190518457456,2026-02-03 20h22.32.390827 +0530,
,,,28,28,0,13,frames\Vid13_BB_T.png,frames\Vid13_L.png,['l'],1,[4.190651199984131],[None],2,1.1818813999998383,,,,,0,28,28,12,1750.8113063999917,,23,Male,Right handed,Normal,,,,,,,,,,,,,,,,,,,,,,,,,,,,,,,,,,,,,,,,1750.7915578999964,1750.8113063999917,1750.8113063999917,1750.8113063999917,1750.8113063999917,1750.8113063999917,1750.8113063999917,1755.0106050999893,['l'],1,[4.190651199984131],[None],1755.0116095000121,1755.025148899993,1755.025148899993,1755.025148899993,1756.2087319999991,2,1.1818813999998383,2,1.1818813999998383,,,,,,,,sub161_NB,001,2026-02-03_20h22.06.157,recognitionstage,,2025.1.1,59.559190518457456,2026-02-03 20h22.32.390827 +0530,
,,,29,29,0,4,frames\Vid4_EM_T.png,frames\Vid4_L.png,['r'],1,[2.795983599993633],[None],5,1.3835397000075318,,,,,0,29,29,3,1756.2778360999946,,23,Male,Right handed,Normal,,,,,,,,,,,,,,,,,,,,,,,,,,,,,,,,,,,,,,,,1756.2529525000136,1756.2778360999946,1756.2778360999946,1756.2778360999946,1756.2778360999946,1756.2778360999946,1756.2778360999946,1759.0761908999993,['r'],1,[2.795983599993633],[None],1759.0769065000059,1759.0919750999892,1759.0919750999892,1759.0919750999892,1760.4758537999878,5,1.3835397000075318,5,1.3835397000075318,,,,,,,,sub161_NB,001,2026-02-03_20h22.06.157,recognitionstage,,2025.1.1,59.559190518457456,2026-02-03 20h22.32.390827 +0530,
,,,30,30,0,28,frames\Vid28_EM_T.png,frames\Vid28_L.png,['r'],1,[4.026892299996689],[None],1,1.4633437999873422,,,,,0,30,30,27,1760.5109872999892,,23,Male,Right handed,Normal,,,,,,,,,,,,,,,,,,,,,,,,,,,,,,,,,,,,,,,,1760.4861222000036,1760.5109872999892,1760.5109872999892,1760.5109872999892,1760.5109872999892,1760.5109872999892,1760.5109872999892,1764.5443744999939,['r'],1,[4.026892299996689],[None],1764.5460724000004,1764.57300199999,1764.57300199999,1764.57300199999,1766.0264575000037,1,1.4633437999873422,1,1.4633437999873422,,,,,,,,sub161_NB,001,2026-02-03_20h22.06.157,recognitionstage,,2025.1.1,59.559190518457456,2026-02-03 20h22.32.390827 +0530,
,,,31,31,0,39,frames\Vid39_BB_T.png,frames\Vid39_L.png,['l'],1,[3.1506625000038184],[None],4,1.181028500024695,,,,,0,31,31,38,1766.043262399995,,23,Male,Right handed,Normal,,,,,,,,,,,,,,,,,,,,,,,,,,,,,,,,,,,,,,,,1766.0349219999916,1766.043262399995,1766.043262399995,1766.043262399995,1766.043262399995,1766.043262399995,1766.043262399995,1769.1945492000086,['l'],1,[3.1506625000038184],[None],1769.195620899991,1769.2229022000101,1769.2229022000101,1769.2229022000101,1770.3920738000015,4,1.181028500024695,4,1.181028500024695,,,,,,,,sub161_NB,001,2026-02-03_20h22.06.157,recognitionstage,,2025.1.1,59.559190518457456,2026-02-03 20h22.32.390827 +0530,
,,,32,32,0,16,frames\Vid16_EM_T.png,frames\Vid16_L.png,['r'],1,[3.2476546999823768],[None],4,1.0148865000228398,,,,,0,32,32,15,1770.4421255000052,,23,Male,Right handed,Normal,,,,,,,,,,,,,,,,,,,,,,,,,,,,,,,,,,,,,,,,1770.4302906999947,1770.4421255000052,1770.4421255000052,1770.4421255000052,1770.4421255000052,1770.4421255000052,1770.4421255000052,1773.6930693000031,['r'],1,[3.2476546999823768],[None],1773.6937783999892,1773.7080261000083,1773.7080261000083,1773.7080261000083,1774.7255710999889,4,1.0148865000228398,4,1.0148865000228398,,,,,,,,sub161_NB,001,2026-02-03_20h22.06.157,recognitionstage,,2025.1.1,59.559190518457456,2026-02-03 20h22.32.390827 +0530,
,,,33,33,0,33,frames\Vid33_BB_T.png,frames\Vid33_L.png,['l'],0,[2.5516862999938894],[None],1,1.616178799973568,,,,,0,33,33,32,1774.7460419000126,,23,Male,Right handed,Normal,,,,,,,,,,,,,,,,,,,,,,,,,,,,,,,,,,,,,,,,1774.7341896000144,1774.7460419000126,1774.7460419000126,1774.7460419000126,1774.7460419000126,1774.7460419000126,1774.7460419000126,1777.3090976999956,['l'],0,[2.5516862999938894],[None],1777.3099075999926,1777.3250556999992,1777.3250556999992,1777.3250556999992,1778.9419474999886,1,1.616178799973568,1,1.616178799973568,,,,,,,,sub161_NB,001,2026-02-03_20h22.06.157,recognitionstage,,2025.1.1,59.559190518457456,2026-02-03 20h22.32.390827 +0530,
,,,34,34,0,24,frames\Vid24_BB_T.png,frames\Vid24_L.png,['r'],1,[2.6117354000161868],[None],5,1.5777143000159413,,,,,0,34,34,23,1778.9744367999956,,23,Male,Right handed,Normal,,,,,,,,,,,,,,,,,,,,,,,,,,,,,,,,,,,,,,,,1778.955645500013,1778.9744367999956,1778.9744367999956,1778.9744367999956,1778.9744367999956,1778.9744367999956,1778.9744367999956,1781.5964527000033,['r'],1,[2.6117354000161868],[None],1781.5981933000148,1781.6229639000085,1781.6229639000085,1781.6229639000085,1783.1917564999894,5,1.5777143000159413,5,1.5777143000159413,,,,,,,,sub161_NB,001,2026-02-03_20h22.06.157,recognitionstage,,2025.1.1,59.559190518457456,2026-02-03 20h22.32.390827 +0530,
,,,35,35,0,14,frames\Vid14_BB_T.png,frames\Vid14_L.png,['r'],1,[2.1271497999841813],[None],1,1.0645598000264727,,,,,0,35,35,13,1783.2587522999966,,23,Male,Right handed,Normal,,,,,,,,,,,,,,,,,,,,,,,,,,,,,,,,,,,,,,,,1783.2374593999994,1783.2587522999966,1783.2587522999966,1783.2587522999966,1783.2587522999966,1783.2587522999966,1783.2587522999966,1785.393489500013,['r'],1,[2.1271497999841813],[None],1785.3943497000146,1785.4084760000114,1785.4084760000114,1785.4084760000114,1786.4753966999997,1,1.0645598000264727,1,1.0645598000264727,,,,,,,,sub161_NB,001,2026-02-03_20h22.06.157,recognitionstage,,2025.1.1,59.559190518457456,2026-02-03 20h22.32.390827 +0530,
,,,36,36,0,5,frames\Vid5_EM_T.png,frames\Vid5_L.png,['r'],1,[2.35394170001382],[None],1,0.6982931999955326,,,,,0,36,36,4,1786.5278809999872,,23,Male,Right handed,Normal,,,,,,,,,,,,,,,,,,,,,,,,,,,,,,,,,,,,,,,,1786.503684299998,1786.5278809999872,1786.5278809999872,1786.5278809999872,1786.5278809999872,1786.5278809999872,1786.5278809999872,1788.8931849999935,['r'],1,[2.35394170001382],[None],1788.8941103999969,1788.9085110999877,1788.9085110999877,1788.9085110999877,1789.6093592999969,1,0.6982931999955326,1,0.6982931999955326,,,,,,,,sub161_NB,001,2026-02-03_20h22.06.157,recognitionstage,,2025.1.1,59.559190518457456,2026-02-03 20h22.32.390827 +0530,
,,,37,37,0,17,frames\Vid17_BB_T.png,frames\Vid17_L.png,['r'],1,[6.230065299983835],[None],4,2.2978217999916524,,,,,0,37,37,16,1789.6437275999924,,23,Male,Right handed,Normal,,,,,,,,,,,,,,,,,,,,,,,,,,,,,,,,,,,,,,,,1789.6348948999948,1789.6437275999924,1789.6437275999924,1789.6437275999924,1789.6437275999924,1789.6437275999924,1789.6437275999924,1795.876890399988,['r'],1,[6.230065299983835],[None],1795.8780205000076,1795.8917246999918,1795.8917246999918,1795.8917246999918,1798.1929659000016,4,2.2978217999916524,4,2.2978217999916524,,,,,,,,sub161_NB,001,2026-02-03_20h22.06.157,recognitionstage,,2025.1.1,59.559190518457456,2026-02-03 20h22.32.390827 +0530,
,,,38,38,0,30,frames\Vid30_EM_T.png,frames\Vid30_L.png,['l'],0,[2.992132799990941],[None],1,1.7489239999849815,,,,,0,38,38,29,1798.2259168000019,,23,Male,Right handed,Normal,,,,,,,,,,,,,,,,,,,,,,,,,,,,,,,,,,,,,,,,1798.2031671000004,1798.2259168000019,1798.2259168000019,1798.2259168000019,1798.2259168000019,1798.2259168000019,1798.2259168000019,1801.2265786000062,['l'],0,[2.992132799990941],[None],1801.2274822999898,1801.2417622999928,1801.2417622999928,1801.2417622999928,1802.9925030999875,1,1.7489239999849815,1,1.7489239999849815,,,,,,,,sub161_NB,001,2026-02-03_20h22.06.157,recognitionstage,,2025.1.1,59.559190518457456,2026-02-03 20h22.32.390827 +0530,
,,,39,39,0,1,frames\Vid1_EM_T.png,frames\Vid1_L.png,['l'],0,[4.767154899978777],[None],1,1.1486623999953736,,,,,0,39,39,0,1803.0586916999891,,23,Male,Right handed,Normal,,,,,,,,,,,,,,,,,,,,,,,,,,,,,,,,,,,,,,,,1803.0383304000134,1803.0586916999891,1803.0586916999891,1803.0586916999891,1803.0586916999891,1803.0586916999891,1803.0586916999891,1807.8266554000147,['l'],0,[4.767154899978777],[None],1807.8274861999962,1807.8418710000115,1807.8418710000115,1807.8418710000115,1808.9922531000047,1,1.1486623999953736,1,1.1486623999953736,,,,,,,,sub161_NB,001,2026-02-03_20h22.06.157,recognitionstage,,2025.1.1,59.559190518457456,2026-02-03 20h22.32.390827 +0530,
,,,,,,,,,,,,,,,,,,,,,,,,,23,Male,Right handed,Normal,,,,,,,,,,,,,,,,,,,,,,,,,,,,,,,,,,,,,,,,,,,,,,,,,,,,,,,,,,,,,1808.9923692999873,1809.0092083000054,1809.0092083000054,1812.0259398999915,space,3.0087193000072148,None,sub161_NB,001,2026-02-03_20h22.06.157,recognitionstage,,2025.1.1,59.559190518457456,2026-02-03 20h22.32.390827 +0530,
