path,duration,is_repeat,thisN,thisTrialN,thisRepN,movie_id,target_img,lure_img,resp.keys,resp.corr,resp.rt,resp.duration,conf_radio.response,conf_radio.rt,movie.thisRepN,movie.thisTrialN,movie.thisN,movie.thisIndex,recogloop.thisRepN,recogloop.thisTrialN,recogloop.thisN,recogloop.thisIndex,thisRow.t,notes,age,gender,handedness,vision,caffeine_2h,alcohol_smoke_12h,demographics.started,demographics.stopped,Instructions.started,text1.started,key_resp.started,Instructions.stopped,key_resp.keys,key_resp.rt,key_resp.duration,instruction_2.started,text2.started,key_resp_2.started,instruction_2.stopped,key_resp_2.keys,key_resp_2.rt,key_resp_2.duration,Videos.started,movie_2.started,vigilance_resp.started,movie_2.stopped,Videos.stopped,movie.vigilance_resp.keys,vigilance_pressed,vigilance_correct,ISI.started,text.started,ISI.stopped,text.stopped,movie.vigilance_resp.rt,movie.vigilance_resp.duration,recognition.started,text_4.started,key_resp_3.started,recognition.stopped,key_resp_3.keys,key_resp_3.rt,key_resp_3.duration,recognition_task.started,leftimage.started,rightimage.started,resp.started,frames_question.started,right_label.started,left_label.started,recognition_task.stopped,recogloop.resp.keys,recogloop.resp.corr,recogloop.resp.rt,recogloop.resp.duration,confidence.started,conf_text.started,conf_radio.started,conf_label.started,confidence.stopped,recogloop.conf_radio.response,recogloop.conf_radio.rt,confidence,confidence_rt,thank_you.started,text_6.started,key_resp_4.started,thank_you.stopped,key_resp_4.keys,key_resp_4.rt,key_resp_4.duration,participant,session,date,expName,expVersion,psychopyVersion,frameRate,expStart,...105
,,,,,,,,,,,,,,,,,,,,,,,,,21,Male,Right handed,Normal,Caffeine consumed in last 2 hours?,Alcohol or smoking in last 12 hours?,0.015091900000697933,0.01761110000370536,,,,,,,,,,,,,,,,,,,,,,,,,,,,,,,,,,,,,,,,,,,,,,,,,,,,,,,,,,,,,,,,test3,001,2026-02-02_17h58.06.090,recognitionstage,,2025.1.1,60.70020109624501,2026-02-02 17h59.15.719334 +0530,
,,,,,,,,,,,,,,,,,,,,,,,,,21,Male,Right handed,Normal,,,,,0.01763129999744706,0.03438779999851249,0.03438779999851249,11.203395299991826,space,11.158684299996821,None,,,,,,,,,,,,,,,,,,,,,,,,,,,,,,,,,,,,,,,,,,,,,,,,,,,,,,,,,test3,001,2026-02-02_17h58.06.090,recognitionstage,,2025.1.1,60.70020109624501,2026-02-02 17h59.15.719334 +0530,
,,,,,,,,,,,,,,,,,,,,,,,,,21,Male,Right handed,Normal,,,,,,,,,,,,11.2034466000041,11.217411100005847,11.217411100005847,23.45196429999487,space,12.223621700002695,None,,,,,,,,,,,,,,,,,,,,,,,,,,,,,,,,,,,,,,,,,,,,,,,,,,test3,001,2026-02-02_17h58.06.090,recognitionstage,,2025.1.1,60.70020109624501,2026-02-02 17h59.15.719334 +0530,
abrupt_videos\abrupt_6.mp4,31,0,44,44,0,,,,,,,,,,0,44,44,6,,,,,1510.2660883000062,,21,Male,Right handed,Normal,,,,,,,,,,,,,,,,,,,1510.2123398999975,1510.2660883000062,1510.2660883000062,1541.6657541000022,1541.5141625999968,None,0,1,1541.650223100005,1541.6657541000022,1544.152835700006,1510.2660883000062,7.338214699993841,None,1544.1529465000058,1544.1675623000046,1544.1675623000046,1591.402011099999,space,47.2329735999956,None,,,,,,,,,,,,,,,,,,,,,,,,,,,,,test3,001,2026-02-02_17h58.06.090,recognitionstage,,2025.1.1,60.70020109624501,2026-02-02 17h59.15.719334 +0530,
,,,0,0,0,26,frames\Vid26_EM_T.png,frames\Vid26_L.png,['l'],1,[8.19261529999494],[None],5,9.932460700001684,,,,,0,0,0,25,1591.4317665999988,,21,Male,Right handed,Normal,,,,,,,,,,,,,,,,,,,,,,,,,,,,,,,,,,,,,,,,1591.4250064999942,1591.4317665999988,1591.4317665999988,1591.4317665999988,1591.4317665999988,1591.4317665999988,1591.4317665999988,1599.6343835000007,['l'],1,[8.19261529999494],[None],1599.6352377000003,1599.6499426999944,1599.6499426999944,1599.6499426999944,1609.584169499998,5,9.932460700001684,5,9.932460700001684,,,,,,,,test3,001,2026-02-02_17h58.06.090,recognitionstage,,2025.1.1,60.70020109624501,2026-02-02 17h59.15.719334 +0530,
,,,1,1,0,31,frames\Vid31_EM_T.png,frames\Vid31_L.png,['r'],1,[5.377015699996264],[None],3,2.7831541000050493,,,,,0,1,1,30,1609.6153076000046,,21,Male,Right handed,Normal,,,,,,,,,,,,,,,,,,,,,,,,,,,,,,,,,,,,,,,,1609.596076899994,1609.6153076000046,1609.6153076000046,1609.6153076000046,1609.6153076000046,1609.6153076000046,1609.6153076000046,1615.0008998999983,['r'],1,[5.377015699996264],[None],1615.001542099999,1615.015990800006,1615.015990800006,1615.015990800006,1617.8009947999963,3,2.7831541000050493,3,2.7831541000050493,,,,,,,,test3,001,2026-02-02_17h58.06.090,recognitionstage,,2025.1.1,60.70020109624501,2026-02-02 17h59.15.719334 +0530,
,,,2,2,0,14,frames\Vid14_BB_T.png,frames\Vid14_L.png,['r'],1,[5.861656099994434],[None],2,2.964643999992404,,,,,0,2,2,13,1617.8666961999988,,21,Male,Right handed,Normal,,,,,,,,,,,,,,,,,,,,,,,,,,,,,,,,,,,,,,,,1617.8475801000022,1617.8666961999988,1617.8666961999988,1617.8666961999988,1617.8666961999988,1617.8666961999988,1617.8666961999988,1623.7349018999957,['r'],1,[5.861656099994434],[None],1623.7358688999957,1623.7499123000016,1623.7499123000016,1623.7499123000016,1626.7179483999935,2,2.964643999992404,2,2.964643999992404,,,,,,,,test3,001,2026-02-02_17h58.06.090,recognitionstage,,2025.1.1,60.70020109624501,2026-02-02 17h59.15.719334 +0530,
,,,3,3,0,34,frames\Vid34_BB_T.png,frames\Vid34_L.png,['r'],1,[8.004083699997864],[None],3,1.881195400012075,,,,,0,3,3,33,1626.7484223999927,,21,Male,Right handed,Normal,,,,,,,,,,,,,,,,,,,,,,,,,,,,,,,,,,,,,,,,1626.7402054999984,1626.7484223999927,1626.7484223999927,1626.7484223999927,1626.7484223999927,1626.7484223999927,1626.7484223999927,1634.7684277999942,['r'],1,[8.004083699997864],[None],1634.769644,1634.7826648000046,1634.7826648000046,1634.7826648000046,1636.667274899999,3,1.881195400012075,3,1.881195400012075,,,,,,,,test3,001,2026-02-02_17h58.06.090,recognitionstage,,2025.1.1,60.70020109624501,2026-02-02 17h59.15.719334 +0530,
,,,4,4,0,24,frames\Vid24_BB_T.png,frames\Vid24_L.png,['r'],1,[4.0688187000050675],[None],4,1.4149241999984952,,,,,0,4,4,23,1636.6997372000042,,21,Male,Right handed,Normal,,,,,,,,,,,,,,,,,,,,,,,,,,,,,,,,,,,,,,,,1636.681680099995,1636.6997372000042,1636.6997372000042,1636.6997372000042,1636.6997372000042,1636.6997372000042,1636.6997372000042,1640.7854002999957,['r'],1,[4.0688187000050675],[None],1640.7862337999977,1640.7997112000012,1640.7997112000012,1640.7997112000012,1642.2176831999968,4,1.4149241999984952,4,1.4149241999984952,,,,,,,,test3,001,2026-02-02_17h58.06.090,recognitionstage,,2025.1.1,60.70020109624501,2026-02-02 17h59.15.719334 +0530,
,,,5,5,0,33,frames\Vid33_BB_T.png,frames\Vid33_L.png,['r'],1,[5.9181000999960816],[None],5,1.6664164000103483,,,,,0,5,5,32,1642.234766499998,,21,Male,Right handed,Normal,,,,,,,,,,,,,,,,,,,,,,,,,,,,,,,,,,,,,,,,1642.2272144000017,1642.234766499998,1642.234766499998,1642.234766499998,1642.234766499998,1642.234766499998,1642.234766499998,1648.167637000006,['r'],1,[5.9181000999960816],[None],1648.168473400001,1648.1831906000007,1648.1831906000007,1648.1831906000007,1649.8504306999967,5,1.6664164000103483,5,1.6664164000103483,,,,,,,,test3,001,2026-02-02_17h58.06.090,recognitionstage,,2025.1.1,60.70020109624501,2026-02-02 17h59.15.719334 +0530,
,,,6,6,0,30,frames\Vid30_EM_T.png,frames\Vid30_L.png,['r'],1,[6.212656800009427],[None],5,2.7325662999937776,,,,,0,6,6,29,1649.8679064000025,,21,Male,Right handed,Normal,,,,,,,,,,,,,,,,,,,,,,,,,,,,,,,,,,,,,,,,1649.8588750000054,1649.8679064000025,1649.8679064000025,1649.8679064000025,1649.8679064000025,1649.8679064000025,1649.8679064000025,1656.0846031999972,['r'],1,[6.212656800009427],[None],1656.085328000001,1656.0994938999938,1656.0994938999938,1656.0994938999938,1658.8338337000023,5,2.7325662999937776,5,2.7325662999937776,,,,,,,,test3,001,2026-02-02_17h58.06.090,recognitionstage,,2025.1.1,60.70020109624501,2026-02-02 17h59.15.719334 +0530,
,,,7,7,0,20,frames\Vid20_EM_T.png,frames\Vid20_L.png,['r'],1,[9.18864510000276],[None],4,1.0972477000032086,,,,,0,7,7,19,1658.8517748000013,,21,Male,Right handed,Normal,,,,,,,,,,,,,,,,,,,,,,,,,,,,,,,,,,,,,,,,1658.8418720000045,1658.8517748000013,1658.8517748000013,1658.8517748000013,1658.8517748000013,1658.8517748000013,1658.8517748000013,1668.0525815,['r'],1,[9.18864510000276],[None],1668.0536855999962,1668.0662146999966,1668.0662146999966,1668.0662146999966,1669.1674299000006,4,1.0972477000032086,4,1.0972477000032086,,,,,,,,test3,001,2026-02-02_17h58.06.090,recognitionstage,,2025.1.1,60.70020109624501,2026-02-02 17h59.15.719334 +0530,
,,,8,8,0,16,frames\Vid16_EM_T.png,frames\Vid16_L.png,['r'],1,[11.623688899999252],[None],4,1.0477810000011232,,,,,0,8,8,15,1669.2167213999928,,21,Male,Right handed,Normal,,,,,,,,,,,,,,,,,,,,,,,,,,,,,,,,,,,,,,,,1669.2088502999977,1669.2167213999928,1669.2167213999928,1669.2167213999928,1669.2167213999928,1669.2167213999928,1669.2167213999928,1680.8520114999992,['r'],1,[11.623688899999252],[None],1680.8531696999999,1680.881329900003,1680.881329900003,1680.881329900003,1681.9173085999937,4,1.0477810000011232,4,1.0477810000011232,,,,,,,,test3,001,2026-02-02_17h58.06.090,recognitionstage,,2025.1.1,60.70020109624501,2026-02-02 17h59.15.719334 +0530,
,,,9,9,0,29,frames\Vid29_BB_T.png,frames\Vid29_L.png,['r'],1,[6.4560086999990745],[None],4,1.3158892000064952,,,,,0,9,9,28,1681.9524708999961,,21,Male,Right handed,Normal,,,,,,,,,,,,,,,,,,,,,,,,,,,,,,,,,,,,,,,,1681.9298352000042,1681.9524708999961,1681.9524708999961,1681.9524708999961,1681.9524708999961,1681.9524708999961,1681.9524708999961,1688.4181484,['r'],1,[6.4560086999990745],[None],1688.4190529000043,1688.4332517000003,1688.4332517000003,1688.4332517000003,1689.7502209999948,4,1.3158892000064952,4,1.3158892000064952,,,,,,,,test3,001,2026-02-02_17h58.06.090,recognitionstage,,2025.1.1,60.70020109624501,2026-02-02 17h59.15.719334 +0530,
,,,10,10,0,32,frames\Vid32_EM_T.png,frames\Vid32_L.png,['r'],1,[5.113718799999333],[None],4,1.1481550999887986,,,,,0,10,10,31,1689.7826471000008,,21,Male,Right handed,Normal,,,,,,,,,,,,,,,,,,,,,,,,,,,,,,,,,,,,,,,,1689.7622086000047,1689.7826471000008,1689.7826471000008,1689.7826471000008,1689.7826471000008,1689.7826471000008,1689.7826471000008,1694.9022648999962,['r'],1,[5.113718799999333],[None],1694.903212499994,1694.9316771000013,1694.9316771000013,1694.9316771000013,1696.067320999995,4,1.1481550999887986,4,1.1481550999887986,,,,,,,,test3,001,2026-02-02_17h58.06.090,recognitionstage,,2025.1.1,60.70020109624501,2026-02-02 17h59.15.719334 +0530,
,,,11,11,0,4,frames\Vid4_EM_T.png,frames\Vid4_L.png,['l'],1,[10.4904463999992],[None],4,1.1831018999946536,,,,,0,11,11,3,1696.1338957999978,,21,Male,Right handed,Normal,,,,,,,,,,,,,,,,,,,,,,,,,,,,,,,,,,,,,,,,1696.1145533999952,1696.1338957999978,1696.1338957999978,1696.1338957999978,1696.1338957999978,1696.1338957999978,1696.1338957999978,1706.6342221999948,['l'],1,[10.4904463999992],[None],1706.6349453000003,1706.6499034000008,1706.6499034000008,1706.6499034000008,1707.8342130999954,4,1.1831018999946536,4,1.1831018999946536,,,,,,,,test3,001,2026-02-02_17h58.06.090,recognitionstage,,2025.1.1,60.70020109624501,2026-02-02 17h59.15.719334 +0530,
,,,12,12,0,8,frames\Vid8_BB_T.png,frames\Vid8_L.png,['r'],1,[6.970009700002265],[None],3,1.7802771999995457,,,,,0,12,12,7,1707.8864523999946,,21,Male,Right handed,Normal,,,,,,,,,,,,,,,,,,,,,,,,,,,,,,,,,,,,,,,,1707.8739533000044,1707.8864523999946,1707.8864523999946,1707.8864523999946,1707.8864523999946,1707.8864523999946,1707.8864523999946,1714.869378400006,['r'],1,[6.970009700002265],[None],1714.8704753999918,1714.8832598000008,1714.8832598000008,1714.8832598000008,1716.667808099999,3,1.7802771999995457,3,1.7802771999995457,,,,,,,,test3,001,2026-02-02_17h58.06.090,recognitionstage,,2025.1.1,60.70020109624501,2026-02-02 17h59.15.719334 +0530,
,,,13,13,0,18,frames\Vid18_EM_T.png,frames\Vid18_L.png,['l'],1,[5.617968199992902],[None],3,2.532203800001298,,,,,0,13,13,17,1716.7023769999942,,21,Male,Right handed,Normal,,,,,,,,,,,,,,,,,,,,,,,,,,,,,,,,,,,,,,,,1716.6817171000002,1716.7023769999942,1716.7023769999942,1716.7023769999942,1716.7023769999942,1716.7023769999942,1716.7023769999942,1722.3345136999997,['l'],1,[5.617968199992902],[None],1722.3353214999952,1722.3505608999985,1722.3505608999985,1722.3505608999985,1724.884301900005,3,2.532203800001298,3,2.532203800001298,,,,,,,,test3,001,2026-02-02_17h58.06.090,recognitionstage,,2025.1.1,60.70020109624501,2026-02-02 17h59.15.719334 +0530,
,,,14,14,0,39,frames\Vid39_BB_T.png,frames\Vid39_L.png,['l'],1,[11.522905500009074],[None],2,3.7661892999894917,,,,,0,14,14,38,1724.9014567999984,,21,Male,Right handed,Normal,,,,,,,,,,,,,,,,,,,,,,,,,,,,,,,,,,,,,,,,1724.8925276999944,1724.9014567999984,1724.9014567999984,1724.9014567999984,1724.9014567999984,1724.9014567999984,1724.9014567999984,1736.434305799994,['l'],1,[11.522905500009074],[None],1736.4350682999939,1736.450062200005,1736.450062200005,1736.450062200005,1740.2179200999963,2,3.7661892999894917,2,3.7661892999894917,,,,,,,,test3,001,2026-02-02_17h58.06.090,recognitionstage,,2025.1.1,60.70020109624501,2026-02-02 17h59.15.719334 +0530,
,,,15,15,0,5,frames\Vid5_EM_T.png,frames\Vid5_L.png,['r'],1,[5.109967199998209],[None],3,1.4318168000027072,,,,,0,15,15,4,1740.2663290999917,,21,Male,Right handed,Normal,,,,,,,,,,,,,,,,,,,,,,,,,,,,,,,,,,,,,,,,1740.247906100005,1740.2663290999917,1740.2663290999917,1740.2663290999917,1740.2663290999917,1740.2663290999917,1740.2663290999917,1745.3848884000035,['r'],1,[5.109967199998209],[None],1745.385648800002,1745.3995314000058,1745.3995314000058,1745.3995314000058,1746.833931400004,3,1.4318168000027072,3,1.4318168000027072,,,,,,,,test3,001,2026-02-02_17h58.06.090,recognitionstage,,2025.1.1,60.70020109624501,2026-02-02 17h59.15.719334 +0530,
,,,16,16,0,13,frames\Vid13_BB_T.png,frames\Vid13_L.png,['r'],1,[6.2189847999979975],[None],2,4.1824018000043,,,,,0,16,16,12,1746.885401099993,,21,Male,Right handed,Normal,,,,,,,,,,,,,,,,,,,,,,,,,,,,,,,,,,,,,,,,1746.8663737000024,1746.885401099993,1746.885401099993,1746.885401099993,1746.885401099993,1746.885401099993,1746.885401099993,1753.1181012000015,['r'],1,[6.2189847999979975],[None],1753.118989900002,1753.133142199993,1753.133142199993,1753.133142199993,1757.3166117999936,2,4.1824018000043,2,4.1824018000043,,,,,,,,test3,001,2026-02-02_17h58.06.090,recognitionstage,,2025.1.1,60.70020109624501,2026-02-02 17h59.15.719334 +0530,
,,,17,17,0,15,frames\Vid15_BB_T.png,frames\Vid15_L.png,['l'],0,[5.446057000008295],[None],2,1.845890299999155,,,,,0,17,17,14,1757.3863769000018,,21,Male,Right handed,Normal,,,,,,,,,,,,,,,,,,,,,,,,,,,,,,,,,,,,,,,,1757.367980199997,1757.3863769000018,1757.3863769000018,1757.3863769000018,1757.3863769000018,1757.3863769000018,1757.3863769000018,1762.8366907000018,['l'],0,[5.446057000008295],[None],1762.8376967999939,1762.849358499996,1762.849358499996,1762.849358499996,1764.7009261000057,2,1.845890299999155,2,1.845890299999155,,,,,,,,test3,001,2026-02-02_17h58.06.090,recognitionstage,,2025.1.1,60.70020109624501,2026-02-02 17h59.15.719334 +0530,
,,,18,18,0,11,frames\Vid11_EM_T.png,frames\Vid11_L.png,['r'],1,[3.8629349999973783],[None],4,1.383359700004803,,,,,0,18,18,10,1764.769440499993,,21,Male,Right handed,Normal,,,,,,,,,,,,,,,,,,,,,,,,,,,,,,,,,,,,,,,,1764.7441671999986,1764.769440499993,1764.769440499993,1764.769440499993,1764.769440499993,1764.769440499993,1764.769440499993,1768.633540099996,['r'],1,[3.8629349999973783],[None],1768.6340522999963,1768.6497774000018,1768.6497774000018,1768.6497774000018,1770.033772499999,4,1.383359700004803,4,1.383359700004803,,,,,,,,test3,001,2026-02-02_17h58.06.090,recognitionstage,,2025.1.1,60.70020109624501,2026-02-02 17h59.15.719334 +0530,
,,,19,19,0,35,frames\Vid35_EM_T.png,frames\Vid35_L.png,['l'],1,[3.6747858000017004],[None],4,1.7144502000010107,,,,,0,19,19,34,1770.0539553999988,,21,Male,Right handed,Normal,,,,,,,,,,,,,,,,,,,,,,,,,,,,,,,,,,,,,,,,1770.0420199999935,1770.0539553999988,1770.0539553999988,1770.0539553999988,1770.0539553999988,1770.0539553999988,1770.0539553999988,1773.7353617000044,['l'],1,[3.6747858000017004],[None],1773.7364803999953,1773.7500303999986,1773.7500303999986,1773.7500303999986,1775.4665120999998,4,1.7144502000010107,4,1.7144502000010107,,,,,,,,test3,001,2026-02-02_17h58.06.090,recognitionstage,,2025.1.1,60.70020109624501,2026-02-02 17h59.15.719334 +0530,
,,,20,20,0,40,frames\Vid40_EM_T.png,frames\Vid40_L.png,['r'],1,[5.011949300009292],[None],4,1.1310793000011472,,,,,0,20,20,39,1775.4845980999962,,21,Male,Right handed,Normal,,,,,,,,,,,,,,,,,,,,,,,,,,,,,,,,,,,,,,,,1775.4737036000006,1775.4845980999962,1775.4845980999962,1775.4845980999962,1775.4845980999962,1775.4845980999962,1775.4845980999962,1780.5016296999966,['r'],1,[5.011949300009292],[None],1780.5024891999929,1780.5165476999973,1780.5165476999973,1780.5165476999973,1781.650907999996,4,1.1310793000011472,4,1.1310793000011472,,,,,,,,test3,001,2026-02-02_17h58.06.090,recognitionstage,,2025.1.1,60.70020109624501,2026-02-02 17h59.15.719334 +0530,
,,,21,21,0,1,frames\Vid1_EM_T.png,frames\Vid1_L.png,['l'],1,[4.211480600002687],[None],4,1.733293400000548,,,,,0,21,21,0,1781.7166427000047,,21,Male,Right handed,Normal,,,,,,,,,,,,,,,,,,,,,,,,,,,,,,,,,,,,,,,,1781.6972256000008,1781.7166427000047,1781.7166427000047,1781.7166427000047,1781.7166427000047,1781.7166427000047,1781.7166427000047,1785.9338193000003,['l'],1,[4.211480600002687],[None],1785.9343603000016,1785.949377900004,1785.949377900004,1785.949377900004,1787.6835255000042,4,1.733293400000548,4,1.733293400000548,,,,,,,,test3,001,2026-02-02_17h58.06.090,recognitionstage,,2025.1.1,60.70020109624501,2026-02-02 17h59.15.719334 +0530,
,,,22,22,0,9,frames\Vid9_EM_T.png,frames\Vid9_L.png,['l'],1,[4.303706500009866],[None],5,1.781441699989955,,,,,0,22,22,8,1787.7365453999955,,21,Male,Right handed,Normal,,,,,,,,,,,,,,,,,,,,,,,,,,,,,,,,,,,,,,,,1787.7201059999934,1787.7365453999955,1787.7365453999955,1787.7365453999955,1787.7365453999955,1787.7365453999955,1787.7365453999955,1792.051715099995,['l'],1,[4.303706500009866],[None],1792.0526895999938,1792.0660939999943,1792.0660939999943,1792.0660939999943,1793.851104699992,5,1.781441699989955,5,1.781441699989955,,,,,,,,test3,001,2026-02-02_17h58.06.090,recognitionstage,,2025.1.1,60.70020109624501,2026-02-02 17h59.15.719334 +0530,
,,,23,23,0,22,frames\Vid22_EM_T.png,frames\Vid22_L.png,['l'],1,[4.562830299997586],[None],5,1.1965395000006538,,,,,0,23,23,21,1793.8858118000062,,21,Male,Right handed,Normal,,,,,,,,,,,,,,,,,,,,,,,,,,,,,,,,,,,,,,,,1793.8655308000016,1793.8858118000062,1793.8858118000062,1793.8858118000062,1793.8858118000062,1793.8858118000062,1793.8858118000062,1798.4525786000013,['l'],1,[4.562830299997586],[None],1798.4535909999977,1798.4665010000026,1798.4665010000026,1798.4665010000026,1799.667618899999,5,1.1965395000006538,5,1.1965395000006538,,,,,,,,test3,001,2026-02-02_17h58.06.090,recognitionstage,,2025.1.1,60.70020109624501,2026-02-02 17h59.15.719334 +0530,
,,,24,24,0,12,frames\Vid12_EM_T.png,frames\Vid12_L.png,['r'],1,[5.634352100008982],[None],5,1.0305003999965265,,,,,0,24,24,11,1799.7341061000043,,21,Male,Right handed,Normal,,,,,,,,,,,,,,,,,,,,,,,,,,,,,,,,,,,,,,,,1799.7123532999976,1799.7341061000043,1799.7341061000043,1799.7341061000043,1799.7341061000043,1799.7341061000043,1799.7341061000043,1805.3690892000013,['r'],1,[5.634352100008982],[None],1805.370040599999,1805.3982144000038,1805.3982144000038,1805.3982144000038,1806.4177289999934,5,1.0305003999965265,5,1.0305003999965265,,,,,,,,test3,001,2026-02-02_17h58.06.090,recognitionstage,,2025.1.1,60.70020109624501,2026-02-02 17h59.15.719334 +0530,
,,,25,25,0,10,frames\Vid10_BB_T.png,frames\Vid10_L.png,['r'],1,[4.497947000010754],[None],5,1.2653138000023318,,,,,0,25,25,9,1806.4864885999996,,21,Male,Right handed,Normal,,,,,,,,,,,,,,,,,,,,,,,,,,,,,,,,,,,,,,,,1806.4610187999933,1806.4864885999996,1806.4864885999996,1806.4864885999996,1806.4864885999996,1806.4864885999996,1806.4864885999996,1810.9849154999974,['r'],1,[4.497947000010754],[None],1810.9858725999948,1811.0002035999933,1811.0002035999933,1811.0002035999933,1812.2669668000017,5,1.2653138000023318,5,1.2653138000023318,,,,,,,,test3,001,2026-02-02_17h58.06.090,recognitionstage,,2025.1.1,60.70020109624501,2026-02-02 17h59.15.719334 +0530,
,,,26,26,0,17,frames\Vid17_BB_T.png,frames\Vid17_L.png,['l'],1,[8.153543499996886],[None],3,1.214854900012142,,,,,0,26,26,16,1812.3028526999988,,21,Male,Right handed,Normal,,,,,,,,,,,,,,,,,,,,,,,,,,,,,,,,,,,,,,,,1812.2904247999977,1812.3028526999988,1812.3028526999988,1812.3028526999988,1812.3028526999988,1812.3028526999988,1812.3028526999988,1820.469134400002,['l'],1,[8.153543499996886],[None],1820.4704573000054,1820.4832232000044,1820.4832232000044,1820.4832232000044,1821.7003335000045,3,1.214854900012142,3,1.214854900012142,,,,,,,,test3,001,2026-02-02_17h58.06.090,recognitionstage,,2025.1.1,60.70020109624501,2026-02-02 17h59.15.719334 +0530,
,,,27,27,0,27,frames\Vid27_BB_T.png,frames\Vid27_L.png,['r'],1,[5.52202090001083],[None],4,0.9150594999955501,,,,,0,27,27,26,1821.7342398000037,,21,Male,Right handed,Normal,,,,,,,,,,,,,,,,,,,,,,,,,,,,,,,,,,,,,,,,1821.7109745000052,1821.7342398000037,1821.7342398000037,1821.7342398000037,1821.7342398000037,1821.7342398000037,1821.7342398000037,1827.2682545999996,['r'],1,[5.52202090001083],[None],1827.2692186000058,1827.2832068999996,1827.2832068999996,1827.2832068999996,1828.2003425000003,4,0.9150594999955501,4,0.9150594999955501,,,,,,,,test3,001,2026-02-02_17h58.06.090,recognitionstage,,2025.1.1,60.70020109624501,2026-02-02 17h59.15.719334 +0530,
,,,28,28,0,2,frames\Vid2_BB_T.png,frames\Vid2_L.png,['r'],1,[3.2943507000018144],[None],4,1.0310710999910953,,,,,0,28,28,1,1828.2499626999925,,21,Male,Right handed,Normal,,,,,,,,,,,,,,,,,,,,,,,,,,,,,,,,,,,,,,,,1828.2385530000029,1828.2499626999925,1828.2499626999925,1828.2499626999925,1828.2499626999925,1828.2499626999925,1828.2499626999925,1831.551722300006,['r'],1,[3.2943507000018144],[None],1831.553623899992,1831.5811963000015,1831.5811963000015,1831.5811963000015,1832.6002588999982,4,1.0310710999910953,4,1.0310710999910953,,,,,,,,test3,001,2026-02-02_17h58.06.090,recognitionstage,,2025.1.1,60.70020109624501,2026-02-02 17h59.15.719334 +0530,
,,,29,29,0,37,frames\Vid37_BB_T.png,frames\Vid37_L.png,['r'],1,[4.268269899999723],[None],5,1.1796068999974523,,,,,0,29,29,36,1832.6359733999998,,21,Male,Right handed,Normal,,,,,,,,,,,,,,,,,,,,,,,,,,,,,,,,,,,,,,,,1832.6125840000022,1832.6359733999998,1832.6359733999998,1832.6359733999998,1832.6359733999998,1832.6359733999998,1832.6359733999998,1836.9193914000061,['r'],1,[4.268269899999723],[None],1836.9205781000055,1836.9328552999941,1836.9328552999941,1836.9328552999941,1838.1177724000008,5,1.1796068999974523,5,1.1796068999974523,,,,,,,,test3,001,2026-02-02_17h58.06.090,recognitionstage,,2025.1.1,60.70020109624501,2026-02-02 17h59.15.719334 +0530,
,,,30,30,0,7,frames\Vid7_EM_T.png,frames\Vid7_L.png,['l'],1,[5.553353700001026],[None],5,1.3488345999940066,,,,,0,30,30,6,1838.1668830999988,,21,Male,Right handed,Normal,,,,,,,,,,,,,,,,,,,,,,,,,,,,,,,,,,,,,,,,1838.160625599994,1838.1668830999988,1838.1668830999988,1838.1668830999988,1838.1668830999988,1838.1668830999988,1838.1668830999988,1843.7345069000003,['l'],1,[5.553353700001026],[None],1843.7351858000038,1843.7497917,1843.7497917,1843.7497917,1845.1001602000033,5,1.3488345999940066,5,1.3488345999940066,,,,,,,,test3,001,2026-02-02_17h58.06.090,recognitionstage,,2025.1.1,60.70020109624501,2026-02-02 17h59.15.719334 +0530,
,,,31,31,0,38,frames\Vid38_EM_T.png,frames\Vid38_L.png,['r'],1,[5.663443899989943],[None],5,1.0793922000011662,,,,,0,31,31,37,1845.120894599997,,21,Male,Right handed,Normal,,,,,,,,,,,,,,,,,,,,,,,,,,,,,,,,,,,,,,,,1845.108885499998,1845.120894599997,1845.120894599997,1845.120894599997,1845.120894599997,1845.120894599997,1845.120894599997,1850.7867861999985,['r'],1,[5.663443899989943],[None],1850.7879913999932,1850.8148064999987,1850.8148064999987,1850.8148064999987,1851.8832772000023,5,1.0793922000011662,5,1.0793922000011662,,,,,,,,test3,001,2026-02-02_17h58.06.090,recognitionstage,,2025.1.1,60.70020109624501,2026-02-02 17h59.15.719334 +0530,
,,,32,32,0,3,frames\Vid3_BB_T.png,frames\Vid3_L.png,['l'],1,[4.715044999989914],[None],5,1.5809387999906903,,,,,0,32,32,2,1851.933269999994,,21,Male,Right handed,Normal,,,,,,,,,,,,,,,,,,,,,,,,,,,,,,,,,,,,,,,,1851.9212558,1851.933269999994,1851.933269999994,1851.933269999994,1851.933269999994,1851.933269999994,1851.933269999994,1856.651832699994,['l'],1,[4.715044999989914],[None],1856.6526933999994,1856.6661962999933,1856.6661962999933,1856.6661962999933,1858.2510165999993,5,1.5809387999906903,5,1.5809387999906903,,,,,,,,test3,001,2026-02-02_17h58.06.090,recognitionstage,,2025.1.1,60.70020109624501,2026-02-02 17h59.15.719334 +0530,
,,,33,33,0,25,frames\Vid25_BB_T.png,frames\Vid25_L.png,['r'],1,[3.9949915000033798],[None],5,0.9816401999996742,,,,,0,33,33,24,1858.2854779000045,,21,Male,Right handed,Normal,,,,,,,,,,,,,,,,,,,,,,,,,,,,,,,,,,,,,,,,1858.2625527000055,1858.2854779000045,1858.2854779000045,1858.2854779000045,1858.2854779000045,1858.2854779000045,1858.2854779000045,1862.285498199999,['r'],1,[3.9949915000033798],[None],1862.2865128999983,1862.2997946999967,1862.2997946999967,1862.2997946999967,1863.2831116000016,5,0.9816401999996742,5,0.9816401999996742,,,,,,,,test3,001,2026-02-02_17h58.06.090,recognitionstage,,2025.1.1,60.70020109624501,2026-02-02 17h59.15.719334 +0530,
,,,34,34,0,19,frames\Vid19_BB_T.png,frames\Vid19_L.png,['r'],0,[4.666642600001069],[None],5,0.965502999999444,,,,,0,34,34,18,1863.3015261999972,,21,Male,Right handed,Normal,,,,,,,,,,,,,,,,,,,,,,,,,,,,,,,,,,,,,,,,1863.2934925000009,1863.3015261999972,1863.3015261999972,1863.3015261999972,1863.3015261999972,1863.3015261999972,1863.3015261999972,1867.9846674,['r'],0,[4.666642600001069],[None],1867.9857406999945,1867.9999347999983,1867.9999347999983,1867.9999347999983,1868.9671829,5,0.965502999999444,5,0.965502999999444,,,,,,,,test3,001,2026-02-02_17h58.06.090,recognitionstage,,2025.1.1,60.70020109624501,2026-02-02 17h59.15.719334 +0530,
,,,35,35,0,23,frames\Vid23_EM_T.png,frames\Vid23_L.png,['r'],1,[3.64044119999744],[None],5,1.0481520000030287,,,,,0,35,35,22,1868.9997442000022,,21,Male,Right handed,Normal,,,,,,,,,,,,,,,,,,,,,,,,,,,,,,,,,,,,,,,,1868.9827812000003,1868.9997442000022,1868.9997442000022,1868.9997442000022,1868.9997442000022,1868.9997442000022,1868.9997442000022,1872.6513506000047,['r'],1,[3.64044119999744],[None],1872.6521691999951,1872.6659283000045,1872.6659283000045,1872.6659283000045,1873.7170643999998,5,1.0481520000030287,5,1.0481520000030287,,,,,,,,test3,001,2026-02-02_17h58.06.090,recognitionstage,,2025.1.1,60.70020109624501,2026-02-02 17h59.15.719334 +0530,
,,,36,36,0,36,frames\Vid36_BB_T.png,frames\Vid36_L.png,['l'],1,[6.483120200005942],[None],2,1.3807526000018697,,,,,0,36,36,35,1873.7496562000015,,21,Male,Right handed,Normal,,,,,,,,,,,,,,,,,,,,,,,,,,,,,,,,,,,,,,,,1873.7291091999941,1873.7496562000015,1873.7496562000015,1873.7496562000015,1873.7496562000015,1873.7496562000015,1873.7496562000015,1880.2357990000019,['l'],1,[6.483120200005942],[None],1880.236702299997,1880.2494320999976,1880.2494320999976,1880.2494320999976,1881.6346579999954,2,1.3807526000018697,2,1.3807526000018697,,,,,,,,test3,001,2026-02-02_17h58.06.090,recognitionstage,,2025.1.1,60.70020109624501,2026-02-02 17h59.15.719334 +0530,
,,,37,37,0,21,frames\Vid21_BB_T.png,frames\Vid21_L.png,['r'],1,[4.638215600003605],[None],5,1.3984370999969542,,,,,0,37,37,20,1881.6661634000047,,21,Male,Right handed,Normal,,,,,,,,,,,,,,,,,,,,,,,,,,,,,,,,,,,,,,,,1881.6492814999947,1881.6661634000047,1881.6661634000047,1881.6661634000047,1881.6661634000047,1881.6661634000047,1881.6661634000047,1886.3185513999924,['r'],1,[4.638215600003605],[None],1886.3194657999993,1886.3327041000011,1886.3327041000011,1886.3327041000011,1887.733321199994,5,1.3984370999969542,5,1.3984370999969542,,,,,,,,test3,001,2026-02-02_17h58.06.090,recognitionstage,,2025.1.1,60.70020109624501,2026-02-02 17h59.15.719334 +0530,
,,,38,38,0,6,frames\Vid6_BB_T.png,frames\Vid6_L.png,['l'],1,[4.112477899994701],[None],5,1.4656472000060603,,,,,0,38,38,5,1887.7837762999989,,21,Male,Right handed,Normal,,,,,,,,,,,,,,,,,,,,,,,,,,,,,,,,,,,,,,,,1887.7757105000055,1887.7837762999989,1887.7837762999989,1887.7837762999989,1887.7837762999989,1887.7837762999989,1887.7837762999989,1891.901131999999,['l'],1,[4.112477899994701],[None],1891.9016715000034,1891.916178200001,1891.916178200001,1891.916178200001,1893.3837094000046,5,1.4656472000060603,5,1.4656472000060603,,,,,,,,test3,001,2026-02-02_17h58.06.090,recognitionstage,,2025.1.1,60.70020109624501,2026-02-02 17h59.15.719334 +0530,
,,,39,39,0,28,frames\Vid28_EM_T.png,frames\Vid28_L.png,['l'],1,[2.9569867000100203],[None],5,1.4816601000056835,,,,,0,39,39,27,1893.4193287999951,,21,Male,Right handed,Normal,,,,,,,,,,,,,,,,,,,,,,,,,,,,,,,,,,,,,,,,1893.3949995000003,1893.4193287999951,1893.4193287999951,1893.4193287999951,1893.4193287999951,1893.4193287999951,1893.4193287999951,1896.3847829000006,['l'],1,[2.9569867000100203],[None],1896.3857783999993,1896.3997643000039,1896.3997643000039,1896.3997643000039,1897.8832828000013,5,1.4816601000056835,5,1.4816601000056835,,,,,,,,test3,001,2026-02-02_17h58.06.090,recognitionstage,,2025.1.1,60.70020109624501,2026-02-02 17h59.15.719334 +0530,
,,,,,,,,,,,,,,,,,,,,,,,,,21,Male,Right handed,Normal,,,,,,,,,,,,,,,,,,,,,,,,,,,,,,,,,,,,,,,,,,,,,,,,,,,,,,,,,,,,,1897.8833651000023,1897.9001415999955,1897.9001415999955,1905.9351109999989,space,8.028860799997346,None,test3,001,2026-02-02_17h58.06.090,recognitionstage,,2025.1.1,60.70020109624501,2026-02-02 17h59.15.719334 +0530,
