path,duration,is_repeat,thisN,thisTrialN,thisRepN,movie_id,target_img,lure_img,resp.keys,resp.corr,resp.rt,resp.duration,conf_radio.response,conf_radio.rt,movie.thisRepN,movie.thisTrialN,movie.thisN,movie.thisIndex,recogloop.thisRepN,recogloop.thisTrialN,recogloop.thisN,recogloop.thisIndex,thisRow.t,notes,age,gender,handedness,vision,caffeine_2h,alcohol_smoke_12h,demographics.started,demographics.stopped,Instructions.started,text1.started,key_resp.started,Instructions.stopped,key_resp.keys,key_resp.rt,key_resp.duration,instruction_2.started,text2.started,key_resp_2.started,instruction_2.stopped,key_resp_2.keys,key_resp_2.rt,key_resp_2.duration,Videos.started,movie_2.started,vigilance_resp.started,movie_2.stopped,Videos.stopped,movie.vigilance_resp.keys,vigilance_pressed,vigilance_correct,ISI.started,text.started,text.stopped,ISI.stopped,movie.vigilance_resp.rt,movie.vigilance_resp.duration,recognition.started,text_4.started,key_resp_3.started,recognition.stopped,key_resp_3.keys,key_resp_3.rt,key_resp_3.duration,recognition_task.started,leftimage.started,rightimage.started,resp.started,frames_question.started,right_label.started,left_label.started,recognition_task.stopped,recogloop.resp.keys,recogloop.resp.corr,recogloop.resp.rt,recogloop.resp.duration,confidence.started,conf_text.started,conf_radio.started,conf_label.started,confidence.stopped,recogloop.conf_radio.response,recogloop.conf_radio.rt,confidence,confidence_rt,thank_you.started,text_6.started,key_resp_4.started,thank_you.stopped,key_resp_4.keys,key_resp_4.rt,key_resp_4.duration,participant,session,date,expName,expVersion,psychopyVersion,frameRate,expStart,...105
,,,,,,,,,,,,,,,,,,,,,,,,,23,Male,Right handed,Corrected to normal,Caffeine consumed in last 2 hours?,Alcohol or smoking in last 12 hours?,0.013340699995751493,0.015779099994688295,,,,,,,,,,,,,,,,,,,,,,,,,,,,,,,,,,,,,,,,,,,,,,,,,,,,,,,,,,,,,,,,sub130_AB,001,2026-02-02_14h48.11.586,recognitionstage,,2025.1.1,59.8714201383185,2026-02-02 14h49.11.463144 +0530,
,,,,,,,,,,,,,,,,,,,,,,,,,23,Male,Right handed,Corrected to normal,,,,,0.01579999999376014,0.032441400006064214,0.032441400006064214,13.435448000003817,space,13.385445599997183,None,,,,,,,,,,,,,,,,,,,,,,,,,,,,,,,,,,,,,,,,,,,,,,,,,,,,,,,,,sub130_AB,001,2026-02-02_14h48.11.586,recognitionstage,,2025.1.1,59.8714201383185,2026-02-02 14h49.11.463144 +0530,
,,,,,,,,,,,,,,,,,,,,,,,,,23,Male,Right handed,Corrected to normal,,,,,,,,,,,,13.435513000003994,13.44984359999944,13.44984359999944,24.850397100002738,space,11.39186580000387,None,,,,,,,,,,,,,,,,,,,,,,,,,,,,,,,,,,,,,,,,,,,,,,,,,,sub130_AB,001,2026-02-02_14h48.11.586,recognitionstage,,2025.1.1,59.8714201383185,2026-02-02 14h49.11.463144 +0530,
abrupt_videos\abrupt_10.mp4,39,0,44,44,0,,,,,,,,,,0,44,44,11,,,,,1492.548070200006,,23,Male,Right handed,Corrected to normal,,,,,,,,,,,,,,,,,,,1492.495395799997,1492.548070200006,1492.548070200006,1532.080617700005,1531.9298632999999,None,0,1,1532.0659789000056,1532.080617700005,1492.548070200006,1534.5667524000019,1.5242687999998452,None,1534.5668354999943,1534.5822486999969,1534.5822486999969,1559.3839576000028,space,24.795016100004432,None,,,,,,,,,,,,,,,,,,,,,,,,,,,,,sub130_AB,001,2026-02-02_14h48.11.586,recognitionstage,,2025.1.1,59.8714201383185,2026-02-02 14h49.11.463144 +0530,
,,,0,0,0,24,frames\Vid24_BB_T.png,frames\Vid24_L.png,['l'],1,[2.85165290000441],[None],5,10.147918799993931,,,,,0,0,0,23,1559.4133044000046,,23,Male,Right handed,Corrected to normal,,,,,,,,,,,,,,,,,,,,,,,,,,,,,,,,,,,,,,,,1559.4059778999945,1559.4133044000046,1559.4133044000046,1559.4133044000046,1559.4133044000046,1559.4133044000046,1559.4133044000046,1562.2670890000009,['l'],1,[2.85165290000441],[None],1562.2682360000035,1562.2963433999976,1562.2963433999976,1562.2963433999976,1572.4324537999928,5,10.147918799993931,5,10.147918799993931,,,,,,,,sub130_AB,001,2026-02-02_14h48.11.586,recognitionstage,,2025.1.1,59.8714201383185,2026-02-02 14h49.11.463144 +0530,
,,,1,1,0,2,frames\Vid2_BB_T.png,frames\Vid2_L.png,['l'],1,[3.4878624999983003],[None],5,11.265782300004503,,,,,0,1,1,1,1572.4971094000066,,23,Male,Right handed,Corrected to normal,,,,,,,,,,,,,,,,,,,,,,,,,,,,,,,,,,,,,,,,1572.4760313000006,1572.4971094000066,1572.4971094000066,1572.4971094000066,1572.4971094000066,1572.4971094000066,1572.4971094000066,1576.0000759999966,['l'],1,[3.4878624999983003],[None],1576.0011117999966,1576.0151384000055,1576.0151384000055,1576.0151384000055,1587.2826859000052,5,11.265782300004503,5,11.265782300004503,,,,,,,,sub130_AB,001,2026-02-02_14h48.11.586,recognitionstage,,2025.1.1,59.8714201383185,2026-02-02 14h49.11.463144 +0530,
,,,2,2,0,7,frames\Vid7_EM_T.png,frames\Vid7_L.png,['r'],1,[5.773633000004338],[None],3,4.09723899999517,,,,,0,2,2,6,1587.3474668999988,,23,Male,Right handed,Corrected to normal,,,,,,,,,,,,,,,,,,,,,,,,,,,,,,,,,,,,,,,,1587.3399926999991,1587.3474668999988,1587.3474668999988,1587.3474668999988,1587.3474668999988,1587.3474668999988,1587.3474668999988,1593.134607999993,['r'],1,[5.773633000004338],[None],1593.1356834000035,1593.1482494999946,1593.1482494999946,1593.1482494999946,1597.2492427999969,3,4.09723899999517,3,4.09723899999517,,,,,,,,sub130_AB,001,2026-02-02_14h48.11.586,recognitionstage,,2025.1.1,59.8714201383185,2026-02-02 14h49.11.463144 +0530,
,,,3,3,0,21,frames\Vid21_BB_T.png,frames\Vid21_L.png,['l'],1,[6.445149999999558],[None],4,3.5295224000001326,,,,,0,3,3,20,1597.2839326999965,,23,Male,Right handed,Corrected to normal,,,,,,,,,,,,,,,,,,,,,,,,,,,,,,,,,,,,,,,,1597.2629865000054,1597.2839326999965,1597.2839326999965,1597.2839326999965,1597.2839326999965,1597.2839326999965,1597.2839326999965,1603.7350543999928,['l'],1,[6.445149999999558],[None],1603.7363953000022,1603.7634393000044,1603.7634393000044,1603.7634393000044,1607.2828019000008,4,3.5295224000001326,4,3.5295224000001326,,,,,,,,sub130_AB,001,2026-02-02_14h48.11.586,recognitionstage,,2025.1.1,59.8714201383185,2026-02-02 14h49.11.463144 +0530,
,,,4,4,0,16,frames\Vid16_EM_T.png,frames\Vid16_L.png,['r'],1,[4.836669399999664],[None],3,2.630614699999569,,,,,0,4,4,15,1607.3322705000028,,23,Male,Right handed,Corrected to normal,,,,,,,,,,,,,,,,,,,,,,,,,,,,,,,,,,,,,,,,1607.3245193000039,1607.3322705000028,1607.3322705000028,1607.3322705000028,1607.3322705000028,1607.3322705000028,1607.3322705000028,1612.184028699994,['r'],1,[4.836669399999664],[None],1612.1849664000038,1612.2134058999945,1612.2134058999945,1612.2134058999945,1614.8328282000002,3,2.630614699999569,3,2.630614699999569,,,,,,,,sub130_AB,001,2026-02-02_14h48.11.586,recognitionstage,,2025.1.1,59.8714201383185,2026-02-02 14h49.11.463144 +0530,
,,,5,5,0,37,frames\Vid37_BB_T.png,frames\Vid37_L.png,['r'],1,[5.061663599990425],[None],3,1.998104800004512,,,,,0,5,5,36,1614.8673443000007,,23,Male,Right handed,Corrected to normal,,,,,,,,,,,,,,,,,,,,,,,,,,,,,,,,,,,,,,,,1614.8460674999951,1614.8673443000007,1614.8673443000007,1614.8673443000007,1614.8673443000007,1614.8673443000007,1614.8673443000007,1619.9334152999945,['r'],1,[5.061663599990425],[None],1619.9343208999926,1619.948351500003,1619.948351500003,1619.948351500003,1621.949429100001,3,1.998104800004512,3,1.998104800004512,,,,,,,,sub130_AB,001,2026-02-02_14h48.11.586,recognitionstage,,2025.1.1,59.8714201383185,2026-02-02 14h49.11.463144 +0530,
,,,6,6,0,8,frames\Vid8_BB_T.png,frames\Vid8_L.png,['r'],1,[2.1221546000015223],[None],5,1.531620900001144,,,,,0,6,6,7,1621.998743300006,,23,Male,Right handed,Corrected to normal,,,,,,,,,,,,,,,,,,,,,,,,,,,,,,,,,,,,,,,,1621.987947200003,1621.998743300006,1621.998743300006,1621.998743300006,1621.998743300006,1621.998743300006,1621.998743300006,1624.1329676000023,['r'],1,[2.1221546000015223],[None],1624.133909600001,1624.1483191000007,1624.1483191000007,1624.1483191000007,1625.6829174000013,5,1.531620900001144,5,1.531620900001144,,,,,,,,sub130_AB,001,2026-02-02_14h48.11.586,recognitionstage,,2025.1.1,59.8714201383185,2026-02-02 14h49.11.463144 +0530,
,,,7,7,0,6,frames\Vid6_BB_T.png,frames\Vid6_L.png,['l'],0,[9.77749139998923],[None],1,2.5158835999900475,,,,,0,7,7,5,1625.7514154999953,,23,Male,Right handed,Corrected to normal,,,,,,,,,,,,,,,,,,,,,,,,,,,,,,,,,,,,,,,,1625.7268095000036,1625.7514154999953,1625.7514154999953,1625.7514154999953,1625.7514154999953,1625.7514154999953,1625.7514154999953,1635.533749299997,['l'],0,[9.77749139998923],[None],1635.5346029000066,1635.5479119999945,1635.5479119999945,1635.5479119999945,1638.0662763,1,2.5158835999900475,1,2.5158835999900475,,,,,,,,sub130_AB,001,2026-02-02_14h48.11.586,recognitionstage,,2025.1.1,59.8714201383185,2026-02-02 14h49.11.463144 +0530,
,,,8,8,0,32,frames\Vid32_EM_T.png,frames\Vid32_L.png,['l'],1,[2.88381759999902],[None],5,1.815503899997566,,,,,0,8,8,31,1638.101192400005,,23,Male,Right handed,Corrected to normal,,,,,,,,,,,,,,,,,,,,,,,,,,,,,,,,,,,,,,,,1638.0793336999923,1638.101192400005,1638.101192400005,1638.101192400005,1638.101192400005,1638.101192400005,1638.101192400005,1640.9998014000012,['l'],1,[2.88381759999902],[None],1641.0006889999931,1641.0153724999982,1641.0153724999982,1641.0153724999982,1642.8322725000035,5,1.815503899997566,5,1.815503899997566,,,,,,,,sub130_AB,001,2026-02-02_14h48.11.586,recognitionstage,,2025.1.1,59.8714201383185,2026-02-02 14h49.11.463144 +0530,
,,,9,9,0,10,frames\Vid10_BB_T.png,frames\Vid10_L.png,['r'],1,[7.486515900003724],[None],2,2.597308000011253,,,,,0,9,9,9,1642.8989120000042,,23,Male,Right handed,Corrected to normal,,,,,,,,,,,,,,,,,,,,,,,,,,,,,,,,,,,,,,,,1642.8766598999937,1642.8989120000042,1642.8989120000042,1642.8989120000042,1642.8989120000042,1642.8989120000042,1642.8989120000042,1650.4004990999965,['r'],1,[7.486515900003724],[None],1650.4015960999968,1650.4149269000045,1650.4149269000045,1650.4149269000045,1653.0164409999998,2,2.597308000011253,2,2.597308000011253,,,,,,,,sub130_AB,001,2026-02-02_14h48.11.586,recognitionstage,,2025.1.1,59.8714201383185,2026-02-02 14h49.11.463144 +0530,
,,,10,10,0,36,frames\Vid36_BB_T.png,frames\Vid36_L.png,['r'],1,[4.638124999997672],[None],3,1.59643020000658,,,,,0,10,10,35,1653.0508758999931,,23,Male,Right handed,Corrected to normal,,,,,,,,,,,,,,,,,,,,,,,,,,,,,,,,,,,,,,,,1653.0314992000058,1653.0508758999931,1653.0508758999931,1653.0508758999931,1653.0508758999931,1653.0508758999931,1653.0508758999931,1657.7012577999994,['r'],1,[4.638124999997672],[None],1657.7025219999923,1657.7146988000022,1657.7146988000022,1657.7146988000022,1659.3154833000008,3,1.59643020000658,3,1.59643020000658,,,,,,,,sub130_AB,001,2026-02-02_14h48.11.586,recognitionstage,,2025.1.1,59.8714201383185,2026-02-02 14h49.11.463144 +0530,
,,,11,11,0,3,frames\Vid3_BB_T.png,frames\Vid3_L.png,['l'],1,[7.059450100001413],[None],5,1.3161274000012781,,,,,0,11,11,2,1659.3655467000062,,23,Male,Right handed,Corrected to normal,,,,,,,,,,,,,,,,,,,,,,,,,,,,,,,,,,,,,,,,1659.3546827999962,1659.3655467000062,1659.3655467000062,1659.3655467000062,1659.3655467000062,1659.3655467000062,1659.3655467000062,1666.4328962,['l'],1,[7.059450100001413],[None],1666.433858999997,1666.4485856999963,1666.4485856999963,1666.4485856999963,1667.7654000000039,5,1.3161274000012781,5,1.3161274000012781,,,,,,,,sub130_AB,001,2026-02-02_14h48.11.586,recognitionstage,,2025.1.1,59.8714201383185,2026-02-02 14h49.11.463144 +0530,
,,,12,12,0,25,frames\Vid25_BB_T.png,frames\Vid25_L.png,['l'],0,[7.072337499994319],[None],1,2.147255399991991,,,,,0,12,12,24,1667.8006675999932,,23,Male,Right handed,Corrected to normal,,,,,,,,,,,,,,,,,,,,,,,,,,,,,,,,,,,,,,,,1667.7779472999973,1667.8006675999932,1667.8006675999932,1667.8006675999932,1667.8006675999932,1667.8006675999932,1667.8006675999932,1674.8838972999947,['l'],0,[7.072337499994319],[None],1674.8848773999925,1674.8980066999939,1674.8980066999939,1674.8980066999939,1677.0492318000033,1,2.147255399991991,1,2.147255399991991,,,,,,,,sub130_AB,001,2026-02-02_14h48.11.586,recognitionstage,,2025.1.1,59.8714201383185,2026-02-02 14h49.11.463144 +0530,
,,,13,13,0,27,frames\Vid27_BB_T.png,frames\Vid27_L.png,['l'],1,[3.5192377000057604],[None],4,1.8817656000028364,,,,,0,13,13,26,1677.081881399994,,23,Male,Right handed,Corrected to normal,,,,,,,,,,,,,,,,,,,,,,,,,,,,,,,,,,,,,,,,1677.060482300003,1677.081881399994,1677.081881399994,1677.081881399994,1677.081881399994,1677.081881399994,1677.081881399994,1680.6165618999948,['l'],1,[3.5192377000057604],[None],1680.6174540000065,1680.6317866000027,1680.6317866000027,1680.6317866000027,1682.515584599998,4,1.8817656000028364,4,1.8817656000028364,,,,,,,,sub130_AB,001,2026-02-02_14h48.11.586,recognitionstage,,2025.1.1,59.8714201383185,2026-02-02 14h49.11.463144 +0530,
,,,14,14,0,40,frames\Vid40_EM_T.png,frames\Vid40_L.png,['l'],0,[6.211635300001944],[None],3,1.2820231999940006,,,,,0,14,14,39,1682.5334815999959,,23,Male,Right handed,Corrected to normal,,,,,,,,,,,,,,,,,,,,,,,,,,,,,,,,,,,,,,,,1682.5252712999936,1682.5334815999959,1682.5334815999959,1682.5334815999959,1682.5334815999959,1682.5334815999959,1682.5334815999959,1688.7506021000008,['l'],0,[6.211635300001944],[None],1688.7516521999933,1688.7650267999998,1688.7650267999998,1688.7650267999998,1690.0489699000027,3,1.2820231999940006,3,1.2820231999940006,,,,,,,,sub130_AB,001,2026-02-02_14h48.11.586,recognitionstage,,2025.1.1,59.8714201383185,2026-02-02 14h49.11.463144 +0530,
,,,15,15,0,11,frames\Vid11_EM_T.png,frames\Vid11_L.png,['r'],1,[2.9497209999972256],[None],5,2.1148007000010693,,,,,0,15,15,10,1690.115163800001,,23,Male,Right handed,Corrected to normal,,,,,,,,,,,,,,,,,,,,,,,,,,,,,,,,,,,,,,,,1690.0927833000023,1690.115163800001,1690.115163800001,1690.115163800001,1690.115163800001,1690.115163800001,1690.115163800001,1693.066752300001,['r'],1,[2.9497209999972256],[None],1693.0675188000023,1693.0813484999962,1693.0813484999962,1693.0813484999962,1695.198888400002,5,2.1148007000010693,5,2.1148007000010693,,,,,,,,sub130_AB,001,2026-02-02_14h48.11.586,recognitionstage,,2025.1.1,59.8714201383185,2026-02-02 14h49.11.463144 +0530,
,,,16,16,0,14,frames\Vid14_BB_T.png,frames\Vid14_L.png,['l'],1,[3.1095419000048423],[None],5,2.0642666000057943,,,,,0,16,16,13,1695.2675229000015,,23,Male,Right handed,Corrected to normal,,,,,,,,,,,,,,,,,,,,,,,,,,,,,,,,,,,,,,,,1695.2432810000028,1695.2675229000015,1695.2675229000015,1695.2675229000015,1695.2675229000015,1695.2675229000015,1695.2675229000015,1698.3845257000066,['l'],1,[3.1095419000048423],[None],1698.3854701999953,1698.3980072999984,1698.3980072999984,1698.3980072999984,1700.465059299997,5,2.0642666000057943,5,2.0642666000057943,,,,,,,,sub130_AB,001,2026-02-02_14h48.11.586,recognitionstage,,2025.1.1,59.8714201383185,2026-02-02 14h49.11.463144 +0530,
,,,17,17,0,30,frames\Vid30_EM_T.png,frames\Vid30_L.png,['l'],1,[5.578981400001794],[None],2,1.7474643000023207,,,,,0,17,17,29,1700.486241000006,,23,Male,Right handed,Corrected to normal,,,,,,,,,,,,,,,,,,,,,,,,,,,,,,,,,,,,,,,,1700.4740738999972,1700.486241000006,1700.486241000006,1700.486241000006,1700.486241000006,1700.486241000006,1700.486241000006,1706.0683647999977,['l'],1,[5.578981400001794],[None],1706.0693245000002,1706.0817745999957,1706.0817745999957,1706.0817745999957,1707.832317399996,2,1.7474643000023207,2,1.7474643000023207,,,,,,,,sub130_AB,001,2026-02-02_14h48.11.586,recognitionstage,,2025.1.1,59.8714201383185,2026-02-02 14h49.11.463144 +0530,
,,,18,18,0,20,frames\Vid20_EM_T.png,frames\Vid20_L.png,['l'],1,[4.750869600000442],[None],2,1.3309098999889102,,,,,0,18,18,19,1707.850166899996,,23,Male,Right handed,Corrected to normal,,,,,,,,,,,,,,,,,,,,,,,,,,,,,,,,,,,,,,,,1707.839381800004,1707.850166899996,1707.850166899996,1707.850166899996,1707.850166899996,1707.850166899996,1707.850166899996,1712.6177915000007,['l'],1,[4.750869600000442],[None],1712.6190797000017,1712.6464336999925,1712.6464336999925,1712.6464336999925,1713.9664268000051,2,1.3309098999889102,2,1.3309098999889102,,,,,,,,sub130_AB,001,2026-02-02_14h48.11.586,recognitionstage,,2025.1.1,59.8714201383185,2026-02-02 14h49.11.463144 +0530,
,,,19,19,0,1,frames\Vid1_EM_T.png,frames\Vid1_L.png,['l'],1,[8.961164300009841],[None],5,3.863984600000549,,,,,0,19,19,0,1714.0319044000062,,23,Male,Right handed,Corrected to normal,,,,,,,,,,,,,,,,,,,,,,,,,,,,,,,,,,,,,,,,1714.0136857000034,1714.0319044000062,1714.0319044000062,1714.0319044000062,1714.0319044000062,1714.0319044000062,1714.0319044000062,1723.000458800001,['l'],1,[8.961164300009841],[None],1723.0016528999986,1723.0150288000004,1723.0150288000004,1723.0150288000004,1726.8822775000008,5,3.863984600000549,5,3.863984600000549,,,,,,,,sub130_AB,001,2026-02-02_14h48.11.586,recognitionstage,,2025.1.1,59.8714201383185,2026-02-02 14h49.11.463144 +0530,
,,,20,20,0,34,frames\Vid34_BB_T.png,frames\Vid34_L.png,['r'],0,[6.874257500006934],[None],2,2.030152799998177,,,,,0,20,20,33,1726.9029523999925,,23,Male,Right handed,Corrected to normal,,,,,,,,,,,,,,,,,,,,,,,,,,,,,,,,,,,,,,,,1726.8912791000039,1726.9029523999925,1726.9029523999925,1726.9029523999925,1726.9029523999925,1726.9029523999925,1726.9029523999925,1733.784658699995,['r'],0,[6.874257500006934],[None],1733.7858288999996,1733.8133573999949,1733.8133573999949,1733.8133573999949,1735.8322705000028,2,2.030152799998177,2,2.030152799998177,,,,,,,,sub130_AB,001,2026-02-02_14h48.11.586,recognitionstage,,2025.1.1,59.8714201383185,2026-02-02 14h49.11.463144 +0530,
,,,21,21,0,9,frames\Vid9_EM_T.png,frames\Vid9_L.png,['l'],0,[6.247440099992673],[None],1,2.699772700012545,,,,,0,21,21,8,1735.8818453999993,,23,Male,Right handed,Corrected to normal,,,,,,,,,,,,,,,,,,,,,,,,,,,,,,,,,,,,,,,,1735.8673006000026,1735.8818453999993,1735.8818453999993,1735.8818453999993,1735.8818453999993,1735.8818453999993,1735.8818453999993,1742.133608300006,['l'],0,[6.247440099992673],[None],1742.134412600004,1742.1479302999942,1742.1479302999942,1742.1479302999942,1744.8484966999968,1,2.699772700012545,1,2.699772700012545,,,,,,,,sub130_AB,001,2026-02-02_14h48.11.586,recognitionstage,,2025.1.1,59.8714201383185,2026-02-02 14h49.11.463144 +0530,
,,,22,22,0,29,frames\Vid29_BB_T.png,frames\Vid29_L.png,['r'],1,[3.7170841000042856],[None],3,1.7315883999981452,,,,,0,22,22,28,1744.8838605000055,,23,Male,Right handed,Corrected to normal,,,,,,,,,,,,,,,,,,,,,,,,,,,,,,,,,,,,,,,,1744.861697500004,1744.8838605000055,1744.8838605000055,1744.8838605000055,1744.8838605000055,1744.8838605000055,1744.8838605000055,1748.6165038000036,['r'],1,[3.7170841000042856],[None],1748.6173797999945,1748.6315969999996,1748.6315969999996,1748.6315969999996,1750.365924800004,3,1.7315883999981452,3,1.7315883999981452,,,,,,,,sub130_AB,001,2026-02-02_14h48.11.586,recognitionstage,,2025.1.1,59.8714201383185,2026-02-02 14h49.11.463144 +0530,
,,,23,23,0,15,frames\Vid15_BB_T.png,frames\Vid15_L.png,['l'],1,[4.408604199998081],[None],3,1.3473757000028854,,,,,0,23,23,14,1750.4323045000056,,23,Male,Right handed,Corrected to normal,,,,,,,,,,,,,,,,,,,,,,,,,,,,,,,,,,,,,,,,1750.4135684000066,1750.4323045000056,1750.4323045000056,1750.4323045000056,1750.4323045000056,1750.4323045000056,1750.4323045000056,1754.8505345000012,['l'],1,[4.408604199998081],[None],1754.8517417999974,1754.8645707999967,1754.8645707999967,1754.8645707999967,1756.215733399993,3,1.3473757000028854,3,1.3473757000028854,,,,,,,,sub130_AB,001,2026-02-02_14h48.11.586,recognitionstage,,2025.1.1,59.8714201383185,2026-02-02 14h49.11.463144 +0530,
,,,24,24,0,12,frames\Vid12_EM_T.png,frames\Vid12_L.png,['r'],1,[6.54838860000018],[None],1,2.165397999997367,,,,,0,24,24,11,1756.284653099996,,23,Male,Right handed,Corrected to normal,,,,,,,,,,,,,,,,,,,,,,,,,,,,,,,,,,,,,,,,1756.2604083000042,1756.284653099996,1756.284653099996,1756.284653099996,1756.284653099996,1756.284653099996,1756.284653099996,1762.8334613000043,['r'],1,[6.54838860000018],[None],1762.8341933000047,1762.847802999997,1762.847802999997,1762.847802999997,1765.0151606,1,2.165397999997367,1,2.165397999997367,,,,,,,,sub130_AB,001,2026-02-02_14h48.11.586,recognitionstage,,2025.1.1,59.8714201383185,2026-02-02 14h49.11.463144 +0530,
,,,25,25,0,23,frames\Vid23_EM_T.png,frames\Vid23_L.png,['l'],0,[6.022131200006697],[None],1,1.148122600003262,,,,,0,25,25,22,1765.050855900001,,23,Male,Right handed,Corrected to normal,,,,,,,,,,,,,,,,,,,,,,,,,,,,,,,,,,,,,,,,1765.0295435000007,1765.050855900001,1765.050855900001,1765.050855900001,1765.050855900001,1765.050855900001,1765.050855900001,1771.0836247999978,['l'],0,[6.022131200006697],[None],1771.0846426999924,1771.0983467000042,1771.0983467000042,1771.0983467000042,1772.2483925999986,1,1.148122600003262,1,1.148122600003262,,,,,,,,sub130_AB,001,2026-02-02_14h48.11.586,recognitionstage,,2025.1.1,59.8714201383185,2026-02-02 14h49.11.463144 +0530,
,,,26,26,0,19,frames\Vid19_BB_T.png,frames\Vid19_L.png,['l'],0,[4.493927000003168],[None],1,0.8324449000065215,,,,,0,26,26,18,1772.2669407000067,,23,Male,Right handed,Corrected to normal,,,,,,,,,,,,,,,,,,,,,,,,,,,,,,,,,,,,,,,,1772.259284700005,1772.2669407000067,1772.2669407000067,1772.2669407000067,1772.2669407000067,1772.2669407000067,1772.2669407000067,1776.7665322999965,['l'],0,[4.493927000003168],[None],1776.7673001999938,1776.7814279000013,1776.7814279000013,1776.7814279000013,1777.615959799994,1,0.8324449000065215,1,0.8324449000065215,,,,,,,,sub130_AB,001,2026-02-02_14h48.11.586,recognitionstage,,2025.1.1,59.8714201383185,2026-02-02 14h49.11.463144 +0530,
,,,27,27,0,18,frames\Vid18_EM_T.png,frames\Vid18_L.png,['l'],1,[3.4489003000053344],[None],4,1.1968886999966344,,,,,0,27,27,17,1777.6480527999956,,23,Male,Right handed,Corrected to normal,,,,,,,,,,,,,,,,,,,,,,,,,,,,,,,,,,,,,,,,1777.6274766999995,1777.6480527999956,1777.6480527999956,1777.6480527999956,1777.6480527999956,1777.6480527999956,1777.6480527999956,1781.1010879999958,['l'],1,[3.4489003000053344],[None],1781.1023106999928,1781.1146283999988,1781.1146283999988,1781.1146283999988,1782.3153369999927,4,1.1968886999966344,4,1.1968886999966344,,,,,,,,sub130_AB,001,2026-02-02_14h48.11.586,recognitionstage,,2025.1.1,59.8714201383185,2026-02-02 14h49.11.463144 +0530,
,,,28,28,0,4,frames\Vid4_EM_T.png,frames\Vid4_L.png,['r'],0,[4.579124700001557],[None],5,1.1809988000022713,,,,,0,28,28,3,1782.3820991999964,,23,Male,Right handed,Corrected to normal,,,,,,,,,,,,,,,,,,,,,,,,,,,,,,,,,,,,,,,,1782.3595884999959,1782.3820991999964,1782.3820991999964,1782.3820991999964,1782.3820991999964,1782.3820991999964,1782.3820991999964,1786.9679654000065,['r'],0,[4.579124700001557],[None],1786.968838899993,1786.9812512000062,1786.9812512000062,1786.9812512000062,1788.1656402999943,5,1.1809988000022713,5,1.1809988000022713,,,,,,,,sub130_AB,001,2026-02-02_14h48.11.586,recognitionstage,,2025.1.1,59.8714201383185,2026-02-02 14h49.11.463144 +0530,
,,,29,29,0,26,frames\Vid26_EM_T.png,frames\Vid26_L.png,['r'],0,[11.472186400002101],[None],4,1.497611800004961,,,,,0,29,29,25,1788.2007976000023,,23,Male,Right handed,Corrected to normal,,,,,,,,,,,,,,,,,,,,,,,,,,,,,,,,,,,,,,,,1788.1794994999946,1788.2007976000023,1788.2007976000023,1788.2007976000023,1788.2007976000023,1788.2007976000023,1788.2007976000023,1799.6842393999978,['r'],0,[11.472186400002101],[None],1799.6851019000023,1799.6979785000003,1799.6979785000003,1799.6979785000003,1801.1983630000032,4,1.497611800004961,4,1.497611800004961,,,,,,,,sub130_AB,001,2026-02-02_14h48.11.586,recognitionstage,,2025.1.1,59.8714201383185,2026-02-02 14h49.11.463144 +0530,
,,,30,30,0,28,frames\Vid28_EM_T.png,frames\Vid28_L.png,['r'],1,[2.536006800000905],[None],5,1.0640189999976428,,,,,0,30,30,27,1801.217053500004,,23,Male,Right handed,Corrected to normal,,,,,,,,,,,,,,,,,,,,,,,,,,,,,,,,,,,,,,,,1801.2080834999942,1801.217053500004,1801.217053500004,1801.217053500004,1801.217053500004,1801.217053500004,1801.217053500004,1803.7670933000045,['r'],1,[2.536006800000905],[None],1803.7684207999991,1803.782153799999,1803.782153799999,1803.782153799999,1804.8497132000048,5,1.0640189999976428,5,1.0640189999976428,,,,,,,,sub130_AB,001,2026-02-02_14h48.11.586,recognitionstage,,2025.1.1,59.8714201383185,2026-02-02 14h49.11.463144 +0530,
,,,31,31,0,22,frames\Vid22_EM_T.png,frames\Vid22_L.png,['r'],1,[2.911793499995838],[None],5,0.699105799998506,,,,,0,31,31,21,1804.8815020000038,,23,Male,Right handed,Corrected to normal,,,,,,,,,,,,,,,,,,,,,,,,,,,,,,,,,,,,,,,,1804.8638424999954,1804.8815020000038,1804.8815020000038,1804.8815020000038,1804.8815020000038,1804.8815020000038,1804.8815020000038,1807.7999759999948,['r'],1,[2.911793499995838],[None],1807.8008786999999,1807.8145690999954,1807.8145690999954,1807.8145690999954,1808.5155784999952,5,0.699105799998506,5,0.699105799998506,,,,,,,,sub130_AB,001,2026-02-02_14h48.11.586,recognitionstage,,2025.1.1,59.8714201383185,2026-02-02 14h49.11.463144 +0530,
,,,32,32,0,38,frames\Vid38_EM_T.png,frames\Vid38_L.png,['r'],1,[2.724787799990736],[None],3,1.2987804000003962,,,,,0,32,32,37,1808.5480726999958,,23,Male,Right handed,Corrected to normal,,,,,,,,,,,,,,,,,,,,,,,,,,,,,,,,,,,,,,,,1808.5259775000013,1808.5480726999958,1808.5480726999958,1808.5480726999958,1808.5480726999958,1808.5480726999958,1808.5480726999958,1811.2833819999942,['r'],1,[2.724787799990736],[None],1811.2843101000035,1811.2983489000035,1811.2983489000035,1811.2983489000035,1812.5989649999974,3,1.2987804000003962,3,1.2987804000003962,,,,,,,,sub130_AB,001,2026-02-02_14h48.11.586,recognitionstage,,2025.1.1,59.8714201383185,2026-02-02 14h49.11.463144 +0530,
,,,33,33,0,17,frames\Vid17_BB_T.png,frames\Vid17_L.png,['l'],1,[4.889129900009721],[None],1,1.1819656000006944,,,,,0,33,33,16,1812.6317105000053,,23,Male,Right handed,Corrected to normal,,,,,,,,,,,,,,,,,,,,,,,,,,,,,,,,,,,,,,,,1812.6226693999924,1812.6317105000053,1812.6317105000053,1812.6317105000053,1812.6317105000053,1812.6317105000053,1812.6317105000053,1817.5334782999998,['l'],1,[4.889129900009721],[None],1817.5346082000033,1817.5484171999997,1817.5484171999997,1817.5484171999997,1818.731904100001,1,1.1819656000006944,1,1.1819656000006944,,,,,,,,sub130_AB,001,2026-02-02_14h48.11.586,recognitionstage,,2025.1.1,59.8714201383185,2026-02-02 14h49.11.463144 +0530,
,,,34,34,0,33,frames\Vid33_BB_T.png,frames\Vid33_L.png,['l'],1,[3.3530843000044115],[None],5,1.015276799997082,,,,,0,34,34,32,1818.7517166000034,,23,Male,Right handed,Corrected to normal,,,,,,,,,,,,,,,,,,,,,,,,,,,,,,,,,,,,,,,,1818.7403629000037,1818.7517166000034,1818.7517166000034,1818.7517166000034,1818.7517166000034,1818.7517166000034,1818.7517166000034,1822.1167081000021,['l'],1,[3.3530843000044115],[None],1822.117488799995,1822.131367599999,1822.131367599999,1822.131367599999,1823.1490835000004,5,1.015276799997082,5,1.015276799997082,,,,,,,,sub130_AB,001,2026-02-02_14h48.11.586,recognitionstage,,2025.1.1,59.8714201383185,2026-02-02 14h49.11.463144 +0530,
,,,35,35,0,39,frames\Vid39_BB_T.png,frames\Vid39_L.png,['l'],1,[2.5944363000016892],[None],3,1.2488789999915753,,,,,0,35,35,38,1823.1664696999942,,23,Male,Right handed,Corrected to normal,,,,,,,,,,,,,,,,,,,,,,,,,,,,,,,,,,,,,,,,1823.1573581999983,1823.1664696999942,1823.1664696999942,1823.1664696999942,1823.1664696999942,1823.1664696999942,1823.1664696999942,1825.766216300006,['l'],1,[2.5944363000016892],[None],1825.767206599994,1825.781579500006,1825.781579500006,1825.781579500006,1827.0323307999934,3,1.2488789999915753,3,1.2488789999915753,,,,,,,,sub130_AB,001,2026-02-02_14h48.11.586,recognitionstage,,2025.1.1,59.8714201383185,2026-02-02 14h49.11.463144 +0530,
,,,36,36,0,31,frames\Vid31_EM_T.png,frames\Vid31_L.png,['l'],1,[5.3827660999959335],[None],2,1.2637201999896206,,,,,0,36,36,30,1827.0501723000052,,23,Male,Right handed,Corrected to normal,,,,,,,,,,,,,,,,,,,,,,,,,,,,,,,,,,,,,,,,1827.040432099995,1827.0501723000052,1827.0501723000052,1827.0501723000052,1827.0501723000052,1827.0501723000052,1827.0501723000052,1832.4342449999967,['l'],1,[5.3827660999959335],[None],1832.4352920999954,1832.4485310000018,1832.4485310000018,1832.4485310000018,1833.7156546000042,2,1.2637201999896206,2,1.2637201999896206,,,,,,,,sub130_AB,001,2026-02-02_14h48.11.586,recognitionstage,,2025.1.1,59.8714201383185,2026-02-02 14h49.11.463144 +0530,
,,,37,37,0,13,frames\Vid13_BB_T.png,frames\Vid13_L.png,['l'],0,[7.1077146000025095],[None],2,1.647820900005172,,,,,0,37,37,12,1833.7652703000058,,23,Male,Right handed,Corrected to normal,,,,,,,,,,,,,,,,,,,,,,,,,,,,,,,,,,,,,,,,1833.750040800005,1833.7652703000058,1833.7652703000058,1833.7652703000058,1833.7652703000058,1833.7652703000058,1833.7652703000058,1840.8836890999955,['l'],0,[7.1077146000025095],[None],1840.8845640999934,1840.8981042999949,1840.8981042999949,1840.8981042999949,1842.5494803000038,2,1.647820900005172,2,1.647820900005172,,,,,,,,sub130_AB,001,2026-02-02_14h48.11.586,recognitionstage,,2025.1.1,59.8714201383185,2026-02-02 14h49.11.463144 +0530,
,,,38,38,0,5,frames\Vid5_EM_T.png,frames\Vid5_L.png,['r'],1,[3.81569099999615],[None],4,2.546511199994711,,,,,0,38,38,4,1842.6011799999978,,23,Male,Right handed,Corrected to normal,,,,,,,,,,,,,,,,,,,,,,,,,,,,,,,,,,,,,,,,1842.5792530000035,1842.6011799999978,1842.6011799999978,1842.6011799999978,1842.6011799999978,1842.6011799999978,1842.6011799999978,1846.4178859999956,['r'],1,[3.81569099999615],[None],1846.4187814000034,1846.4315031000006,1846.4315031000006,1846.4315031000006,1848.9820664,4,2.546511199994711,4,2.546511199994711,,,,,,,,sub130_AB,001,2026-02-02_14h48.11.586,recognitionstage,,2025.1.1,59.8714201383185,2026-02-02 14h49.11.463144 +0530,
,,,39,39,0,35,frames\Vid35_EM_T.png,frames\Vid35_L.png,['r'],1,[3.1916360999894096],[None],2,2.497556000002078,,,,,0,39,39,34,1849.0172269000032,,23,Male,Right handed,Corrected to normal,,,,,,,,,,,,,,,,,,,,,,,,,,,,,,,,,,,,,,,,1848.9923585999932,1849.0172269000032,1849.0172269000032,1849.0172269000032,1849.0172269000032,1849.0172269000032,1849.0172269000032,1852.2169632000005,['r'],1,[3.1916360999894096],[None],1852.218085600005,1852.231763200005,1852.231763200005,1852.231763200005,1854.7323869999964,2,2.497556000002078,2,2.497556000002078,,,,,,,,sub130_AB,001,2026-02-02_14h48.11.586,recognitionstage,,2025.1.1,59.8714201383185,2026-02-02 14h49.11.463144 +0530,
,,,,,,,,,,,,,,,,,,,,,,,,,23,Male,Right handed,Corrected to normal,,,,,,,,,,,,,,,,,,,,,,,,,,,,,,,,,,,,,,,,,,,,,,,,,,,,,,,,,,,,,1854.7324784999946,1854.748411099994,1854.748411099994,1859.5161059999955,space,4.756522499999846,None,sub130_AB,001,2026-02-02_14h48.11.586,recognitionstage,,2025.1.1,59.8714201383185,2026-02-02 14h49.11.463144 +0530,
