path,duration,is_repeat,thisN,thisTrialN,thisRepN,movie_id,target_img,lure_img,resp.keys,resp.corr,resp.rt,resp.duration,conf_radio.response,conf_radio.rt,movie.thisRepN,movie.thisTrialN,movie.thisN,movie.thisIndex,recogloop.thisRepN,recogloop.thisTrialN,recogloop.thisN,recogloop.thisIndex,thisRow.t,notes,age,gender,handedness,vision,caffeine_2h,alcohol_smoke_12h,demographics.started,demographics.stopped,Instructions.started,text1.started,key_resp.started,Instructions.stopped,key_resp.keys,key_resp.rt,key_resp.duration,instruction_2.started,text2.started,key_resp_2.started,instruction_2.stopped,key_resp_2.keys,key_resp_2.rt,key_resp_2.duration,Videos.started,movie_2.started,vigilance_resp.started,movie_2.stopped,Videos.stopped,movie.vigilance_resp.keys,vigilance_pressed,vigilance_correct,ISI.started,text.started,text.stopped,ISI.stopped,movie.vigilance_resp.rt,movie.vigilance_resp.duration,recognition.started,text_4.started,key_resp_3.started,recognition.stopped,key_resp_3.keys,key_resp_3.rt,key_resp_3.duration,recognition_task.started,leftimage.started,rightimage.started,resp.started,frames_question.started,right_label.started,left_label.started,recognition_task.stopped,recogloop.resp.keys,recogloop.resp.corr,recogloop.resp.rt,recogloop.resp.duration,confidence.started,conf_text.started,conf_radio.started,conf_label.started,confidence.stopped,recogloop.conf_radio.response,recogloop.conf_radio.rt,confidence,confidence_rt,thank_you.started,text_6.started,key_resp_4.started,thank_you.stopped,key_resp_4.keys,participant,session,date,expName,expVersion,psychopyVersion,frameRate,expStart,...103
,,,,,,,,,,,,,,,,,,,,,,,,,24,Male,Right handed,Corrected to normal,Caffeine consumed in last 2 hours?,Alcohol or smoking in last 12 hours?,0.019386100000701845,0.02184099999431055,,,,,,,,,,,,,,,,,,,,,,,,,,,,,,,,,,,,,,,,,,,,,,,,,,,,,,,,,,,,,,sub140_AB,001,2026-02-02_20h09.36.682,recognitionstage,,2025.1.1,59.915578951629584,2026-02-02 20h10.11.266714 +0530,
,,,,,,,,,,,,,,,,,,,,,,,,,24,Male,Right handed,Corrected to normal,,,,,0.021863899994059466,0.0385666000074707,0.0385666000074707,7.840893000000506,space,7.784768299999996,None,,,,,,,,,,,,,,,,,,,,,,,,,,,,,,,,,,,,,,,,,,,,,,,,,,,,,,,sub140_AB,001,2026-02-02_20h09.36.682,recognitionstage,,2025.1.1,59.915578951629584,2026-02-02 20h10.11.266714 +0530,
,,,,,,,,,,,,,,,,,,,,,,,,,24,Male,Right handed,Corrected to normal,,,,,,,,,,,,7.840989999996964,7.85606619999453,7.85606619999453,13.040307100003702,space,5.183366299999761,None,,,,,,,,,,,,,,,,,,,,,,,,,,,,,,,,,,,,,,,,,,,,,,,,sub140_AB,001,2026-02-02_20h09.36.682,recognitionstage,,2025.1.1,59.915578951629584,2026-02-02 20h10.11.266714 +0530,
abrupt_videos\abrupt_22.mp4,34,0,44,44,0,,,,,,,,,,0,44,44,24,,,,,1496.570648599998,,24,Male,Right handed,Corrected to normal,,,,,,,,,,,,,,,,,,,1496.521131100002,1496.570648599998,1496.570648599998,1531.303509499994,1531.1550225999963,None,0,1,1531.291564900006,1531.303509499994,1533.8049800000008,1533.789827200002,1.5119803999987198,None,1533.7899024999933,1533.8049800000008,1533.8049800000008,1554.1730188999936,space,20.362145899998723,None,,,,,,,,,,,,,,,,,,,,,,,,,,,sub140_AB,001,2026-02-02_20h09.36.682,recognitionstage,,2025.1.1,59.915578951629584,2026-02-02 20h10.11.266714 +0530,
,,,0,0,0,33,frames\Vid33_BB_T.png,frames\Vid33_L.png,['l'],0,[4.404036099993391],[None],1,7.532175600004848,,,,,0,0,0,32,1554.2027663000044,,24,Male,Right handed,Corrected to normal,,,,,,,,,,,,,,,,,,,,,,,,,,,,,,,,,,,,,,,,1554.1897241999977,1554.2027663000044,1554.2027663000044,1554.2027663000044,1554.2027663000044,1554.2027663000044,1554.2027663000044,1558.6228430000047,['l'],0,[4.404036099993391],[None],1558.6237151999958,1558.6373915000004,1558.6373915000004,1558.6373915000004,1566.1713288000028,1,7.532175600004848,1,7.532175600004848,,,,,,sub140_AB,001,2026-02-02_20h09.36.682,recognitionstage,,2025.1.1,59.915578951629584,2026-02-02 20h10.11.266714 +0530,
,,,1,1,0,34,frames\Vid34_BB_T.png,frames\Vid34_L.png,['r'],0,[3.899894400004996],[None],5,2.6477326000022003,,,,,0,1,1,33,1566.2032344000036,,24,Male,Right handed,Corrected to normal,,,,,,,,,,,,,,,,,,,,,,,,,,,,,,,,,,,,,,,,1566.1832677000057,1566.2032344000036,1566.2032344000036,1566.2032344000036,1566.2032344000036,1566.2032344000036,1566.2032344000036,1570.1064904999948,['r'],0,[3.899894400004996],[None],1570.1078723999963,1570.1212208999932,1570.1212208999932,1570.1212208999932,1572.7712942999933,5,2.6477326000022003,5,2.6477326000022003,,,,,,sub140_AB,001,2026-02-02_20h09.36.682,recognitionstage,,2025.1.1,59.915578951629584,2026-02-02 20h10.11.266714 +0530,
,,,2,2,0,30,frames\Vid30_EM_T.png,frames\Vid30_L.png,['r'],1,[3.37736749999749],[None],5,1.6806001999939326,,,,,0,2,2,29,1572.7897032000037,,24,Male,Right handed,Corrected to normal,,,,,,,,,,,,,,,,,,,,,,,,,,,,,,,,,,,,,,,,1572.7800201000064,1572.7897032000037,1572.7897032000037,1572.7897032000037,1572.7897032000037,1572.7897032000037,1572.7897032000037,1576.1737857999979,['r'],1,[3.37736749999749],[None],1576.1751344999939,1576.187819400002,1576.187819400002,1576.187819400002,1577.8712895000062,5,1.6806001999939326,5,1.6806001999939326,,,,,,sub140_AB,001,2026-02-02_20h09.36.682,recognitionstage,,2025.1.1,59.915578951629584,2026-02-02 20h10.11.266714 +0530,
,,,3,3,0,40,frames\Vid40_EM_T.png,frames\Vid40_L.png,['l'],1,[6.669246999997995],[None],5,1.9149413999984972,,,,,0,3,3,39,1577.8895178999956,,24,Male,Right handed,Corrected to normal,,,,,,,,,,,,,,,,,,,,,,,,,,,,,,,,,,,,,,,,1577.879245300006,1577.8895178999956,1577.8895178999956,1577.8895178999956,1577.8895178999956,1577.8895178999956,1577.8895178999956,1584.5727042999933,['l'],1,[6.669246999997995],[None],1584.5740349999978,1584.5878345999954,1584.5878345999954,1584.5878345999954,1586.5046804000012,5,1.9149413999984972,5,1.9149413999984972,,,,,,sub140_AB,001,2026-02-02_20h09.36.682,recognitionstage,,2025.1.1,59.915578951629584,2026-02-02 20h10.11.266714 +0530,
,,,4,4,0,26,frames\Vid26_EM_T.png,frames\Vid26_L.png,['l'],1,[2.1257976000051713],[None],5,1.4989569000026677,,,,,0,4,4,25,1586.5370322999952,,24,Male,Right handed,Corrected to normal,,,,,,,,,,,,,,,,,,,,,,,,,,,,,,,,,,,,,,,,1586.5189501999994,1586.5370322999952,1586.5370322999952,1586.5370322999952,1586.5370322999952,1586.5370322999952,1586.5370322999952,1588.6723973000044,['l'],1,[2.1257976000051713],[None],1588.6733114999952,1588.6878115,1588.6878115,1588.6878115,1590.1890542000037,5,1.4989569000026677,5,1.4989569000026677,,,,,,sub140_AB,001,2026-02-02_20h09.36.682,recognitionstage,,2025.1.1,59.915578951629584,2026-02-02 20h10.11.266714 +0530,
,,,5,5,0,32,frames\Vid32_EM_T.png,frames\Vid32_L.png,['r'],1,[8.714045300002908],[None],5,1.6647462000109954,,,,,0,5,5,31,1590.2208191999962,,24,Male,Right handed,Corrected to normal,,,,,,,,,,,,,,,,,,,,,,,,,,,,,,,,,,,,,,,,1590.2018102000002,1590.2208191999962,1590.2208191999962,1590.2208191999962,1590.2208191999962,1590.2208191999962,1590.2208191999962,1598.9399150999961,['r'],1,[8.714045300002908],[None],1598.940795699993,1598.9542243000033,1598.9542243000033,1598.9542243000033,1600.6213904000033,5,1.6647462000109954,5,1.6647462000109954,,,,,,sub140_AB,001,2026-02-02_20h09.36.682,recognitionstage,,2025.1.1,59.915578951629584,2026-02-02 20h10.11.266714 +0530,
,,,6,6,0,24,frames\Vid24_BB_T.png,frames\Vid24_L.png,['r'],1,[2.7205749999993714],[None],5,2.031864599994151,,,,,0,6,6,23,1600.654292399995,,24,Male,Right handed,Corrected to normal,,,,,,,,,,,,,,,,,,,,,,,,,,,,,,,,,,,,,,,,1600.6332837999944,1600.654292399995,1600.654292399995,1600.654292399995,1600.654292399995,1600.654292399995,1600.654292399995,1603.3895080000075,['r'],1,[2.7205749999993714],[None],1603.3902312999999,1603.4045623999991,1603.4045623999991,1603.4045623999991,1605.4386004999978,5,2.031864599994151,5,2.031864599994151,,,,,,sub140_AB,001,2026-02-02_20h09.36.682,recognitionstage,,2025.1.1,59.915578951629584,2026-02-02 20h10.11.266714 +0530,
,,,7,7,0,15,frames\Vid15_BB_T.png,frames\Vid15_L.png,['l'],1,[2.509490900003584],[None],5,1.3138837000005879,,,,,0,7,7,14,1605.5055269000004,,24,Male,Right handed,Corrected to normal,,,,,,,,,,,,,,,,,,,,,,,,,,,,,,,,,,,,,,,,1605.4855421999964,1605.5055269000004,1605.5055269000004,1605.5055269000004,1605.5055269000004,1605.5055269000004,1605.5055269000004,1608.0235732,['l'],1,[2.509490900003584],[None],1608.024545399996,1608.0374222999963,1608.0374222999963,1608.0374222999963,1609.3552122999972,5,1.3138837000005879,5,1.3138837000005879,,,,,,sub140_AB,001,2026-02-02_20h09.36.682,recognitionstage,,2025.1.1,59.915578951629584,2026-02-02 20h10.11.266714 +0530,
,,,8,8,0,8,frames\Vid8_BB_T.png,frames\Vid8_L.png,['r'],0,[1.9707395000004908],[None],5,1.6313530000043102,,,,,0,8,8,7,1609.420179599998,,24,Male,Right handed,Corrected to normal,,,,,,,,,,,,,,,,,,,,,,,,,,,,,,,,,,,,,,,,1609.4046764999948,1609.420179599998,1609.420179599998,1609.420179599998,1609.420179599998,1609.420179599998,1609.420179599998,1611.4065971999953,['r'],0,[1.9707395000004908],[None],1611.4075767000031,1611.4206915999966,1611.4206915999966,1611.4206915999966,1613.0545453999948,5,1.6313530000043102,5,1.6313530000043102,,,,,,sub140_AB,001,2026-02-02_20h09.36.682,recognitionstage,,2025.1.1,59.915578951629584,2026-02-02 20h10.11.266714 +0530,
,,,9,9,0,21,frames\Vid21_BB_T.png,frames\Vid21_L.png,['l'],1,[4.06091309999465],[None],5,1.1823492999974405,,,,,0,9,9,20,1613.0901109999977,,24,Male,Right handed,Corrected to normal,,,,,,,,,,,,,,,,,,,,,,,,,,,,,,,,,,,,,,,,1613.0659994000016,1613.0901109999977,1613.0901109999977,1613.0901109999977,1613.0901109999977,1613.0901109999977,1613.0901109999977,1617.1556732000026,['l'],1,[4.06091309999465],[None],1617.1565562000033,1617.1713797999982,1617.1713797999982,1617.1713797999982,1618.3549811999983,5,1.1823492999974405,5,1.1823492999974405,,,,,,sub140_AB,001,2026-02-02_20h09.36.682,recognitionstage,,2025.1.1,59.915578951629584,2026-02-02 20h10.11.266714 +0530,
,,,10,10,0,6,frames\Vid6_BB_T.png,frames\Vid6_L.png,['l'],1,[3.561873900005594],[None],5,1.3645896000089124,,,,,0,10,10,5,1618.4053558000014,,24,Male,Right handed,Corrected to normal,,,,,,,,,,,,,,,,,,,,,,,,,,,,,,,,,,,,,,,,1618.398532399995,1618.4053558000014,1618.4053558000014,1618.4053558000014,1618.4053558000014,1618.4053558000014,1618.4053558000014,1621.9729744999931,['l'],1,[3.561873900005594],[None],1621.9738212999946,1621.9877911999938,1621.9877911999938,1621.9877911999938,1623.3552215999953,5,1.3645896000089124,5,1.3645896000089124,,,,,,sub140_AB,001,2026-02-02_20h09.36.682,recognitionstage,,2025.1.1,59.915578951629584,2026-02-02 20h10.11.266714 +0530,
,,,11,11,0,17,frames\Vid17_BB_T.png,frames\Vid17_L.png,['r'],1,[5.1117059999960475],[None],3,1.981715499990969,,,,,0,11,11,16,1623.3910747000045,,24,Male,Right handed,Corrected to normal,,,,,,,,,,,,,,,,,,,,,,,,,,,,,,,,,,,,,,,,1623.3800597999943,1623.3910747000045,1623.3910747000045,1623.3910747000045,1623.3910747000045,1623.3910747000045,1623.3910747000045,1628.5061028000055,['r'],1,[5.1117059999960475],[None],1628.5067062000016,1628.521078699996,1628.521078699996,1628.521078699996,1630.505055600006,3,1.981715499990969,3,1.981715499990969,,,,,,sub140_AB,001,2026-02-02_20h09.36.682,recognitionstage,,2025.1.1,59.915578951629584,2026-02-02 20h10.11.266714 +0530,
,,,12,12,0,38,frames\Vid38_EM_T.png,frames\Vid38_L.png,['l'],0,[4.891012899999623],[None],5,1.8479817999905208,,,,,0,12,12,37,1630.5238931000058,,24,Male,Right handed,Corrected to normal,,,,,,,,,,,,,,,,,,,,,,,,,,,,,,,,,,,,,,,,1630.5145413999999,1630.5238931000058,1630.5238931000058,1630.5238931000058,1630.5238931000058,1630.5238931000058,1630.5238931000058,1635.4231633000018,['l'],0,[4.891012899999623],[None],1635.4243195000017,1635.4381204999954,1635.4381204999954,1635.4381204999954,1637.2883901000023,5,1.8479817999905208,5,1.8479817999905208,,,,,,sub140_AB,001,2026-02-02_20h09.36.682,recognitionstage,,2025.1.1,59.915578951629584,2026-02-02 20h10.11.266714 +0530,
,,,13,13,0,2,frames\Vid2_BB_T.png,frames\Vid2_L.png,['r'],0,[3.460726799996337],[None],4,1.2638697999936994,,,,,0,13,13,1,1637.338193699994,,24,Male,Right handed,Corrected to normal,,,,,,,,,,,,,,,,,,,,,,,,,,,,,,,,,,,,,,,,1637.326834099993,1637.338193699994,1637.338193699994,1637.338193699994,1637.338193699994,1637.338193699994,1637.338193699994,1640.8068488999997,['r'],0,[3.460726799996337],[None],1640.8082380999986,1640.8213445000001,1640.8213445000001,1640.8213445000001,1642.088997400002,4,1.2638697999936994,4,1.2638697999936994,,,,,,sub140_AB,001,2026-02-02_20h09.36.682,recognitionstage,,2025.1.1,59.915578951629584,2026-02-02 20h10.11.266714 +0530,
,,,14,14,0,35,frames\Vid35_EM_T.png,frames\Vid35_L.png,['l'],1,[3.71504750000895],[None],5,1.5972365999914473,,,,,0,14,14,34,1642.123854000005,,24,Male,Right handed,Corrected to normal,,,,,,,,,,,,,,,,,,,,,,,,,,,,,,,,,,,,,,,,1642.0994233999954,1642.123854000005,1642.123854000005,1642.123854000005,1642.123854000005,1642.123854000005,1642.123854000005,1645.8403550999938,['l'],1,[3.71504750000895],[None],1645.8412007000006,1645.8544186000072,1645.8544186000072,1645.8544186000072,1647.454877199998,5,1.5972365999914473,5,1.5972365999914473,,,,,,sub140_AB,001,2026-02-02_20h09.36.682,recognitionstage,,2025.1.1,59.915578951629584,2026-02-02 20h10.11.266714 +0530,
,,,15,15,0,20,frames\Vid20_EM_T.png,frames\Vid20_L.png,['l'],1,[3.286561700006132],[None],5,1.1307416000054218,,,,,0,15,15,19,1647.4723225000052,,24,Male,Right handed,Corrected to normal,,,,,,,,,,,,,,,,,,,,,,,,,,,,,,,,,,,,,,,,1647.4609887999977,1647.4723225000052,1647.4723225000052,1647.4723225000052,1647.4723225000052,1647.4723225000052,1647.4723225000052,1650.7733048999944,['l'],1,[3.286561700006132],[None],1650.7744055999938,1650.7881267000048,1650.7881267000048,1650.7881267000048,1651.9218714000017,5,1.1307416000054218,5,1.1307416000054218,,,,,,sub140_AB,001,2026-02-02_20h09.36.682,recognitionstage,,2025.1.1,59.915578951629584,2026-02-02 20h10.11.266714 +0530,
,,,16,16,0,25,frames\Vid25_BB_T.png,frames\Vid25_L.png,['r'],1,[2.019790499994997],[None],5,0.6489414000097895,,,,,0,16,16,24,1651.9390604999935,,24,Male,Right handed,Corrected to normal,,,,,,,,,,,,,,,,,,,,,,,,,,,,,,,,,,,,,,,,1651.9316087000043,1651.9390604999935,1651.9390604999935,1651.9390604999935,1651.9390604999935,1651.9390604999935,1651.9390604999935,1653.972439899997,['r'],1,[2.019790499994997],[None],1653.9732388999983,1653.988072799999,1653.988072799999,1653.988072799999,1654.6381947000045,5,0.6489414000097895,5,0.6489414000097895,,,,,,sub140_AB,001,2026-02-02_20h09.36.682,recognitionstage,,2025.1.1,59.915578951629584,2026-02-02 20h10.11.266714 +0530,
,,,17,17,0,18,frames\Vid18_EM_T.png,frames\Vid18_L.png,['r'],1,[3.374227599997539],[None],5,1.2157188000128372,,,,,0,17,17,17,1654.656612199993,,24,Male,Right handed,Corrected to normal,,,,,,,,,,,,,,,,,,,,,,,,,,,,,,,,,,,,,,,,1654.6486781999993,1654.656612199993,1654.656612199993,1654.656612199993,1654.656612199993,1654.656612199993,1654.656612199993,1658.0392520000023,['r'],1,[3.374227599997539],[None],1658.0401481000008,1658.0544380000065,1658.0544380000065,1658.0544380000065,1659.2715577000054,5,1.2157188000128372,5,1.2157188000128372,,,,,,sub140_AB,001,2026-02-02_20h09.36.682,recognitionstage,,2025.1.1,59.915578951629584,2026-02-02 20h10.11.266714 +0530,
,,,18,18,0,27,frames\Vid27_BB_T.png,frames\Vid27_L.png,['l'],1,[5.781199899996864],[None],5,0.8968338999984553,,,,,0,18,18,26,1659.2897339000046,,24,Male,Right handed,Corrected to normal,,,,,,,,,,,,,,,,,,,,,,,,,,,,,,,,,,,,,,,,1659.280650700006,1659.2897339000046,1659.2897339000046,1659.2897339000046,1659.2897339000046,1659.2897339000046,1659.2897339000046,1665.0734149000054,['l'],1,[5.781199899996864],[None],1665.0751689000026,1665.1025682000036,1665.1025682000036,1665.1025682000036,1665.9886750000005,5,0.8968338999984553,5,0.8968338999984553,,,,,,sub140_AB,001,2026-02-02_20h09.36.682,recognitionstage,,2025.1.1,59.915578951629584,2026-02-02 20h10.11.266714 +0530,
,,,19,19,0,36,frames\Vid36_BB_T.png,frames\Vid36_L.png,['l'],0,[2.8023454999929527],[None],2,1.6634852999995928,,,,,0,19,19,35,1666.0207343999937,,24,Male,Right handed,Corrected to normal,,,,,,,,,,,,,,,,,,,,,,,,,,,,,,,,,,,,,,,,1666.0021678000048,1666.0207343999937,1666.0207343999937,1666.0207343999937,1666.0207343999937,1666.0207343999937,1666.0207343999937,1668.8237560999987,['l'],0,[2.8023454999929527],[None],1668.8252794,1668.837882199994,1668.837882199994,1668.837882199994,1670.505573500006,2,1.6634852999995928,2,1.6634852999995928,,,,,,sub140_AB,001,2026-02-02_20h09.36.682,recognitionstage,,2025.1.1,59.915578951629584,2026-02-02 20h10.11.266714 +0530,
,,,20,20,0,5,frames\Vid5_EM_T.png,frames\Vid5_L.png,['l'],1,[3.1318366000050446],[None],5,1.3830821000010474,,,,,0,20,20,4,1670.5549592000025,,24,Male,Right handed,Corrected to normal,,,,,,,,,,,,,,,,,,,,,,,,,,,,,,,,,,,,,,,,1670.5347692000068,1670.5549592000025,1670.5549592000025,1670.5549592000025,1670.5549592000025,1670.5549592000025,1670.5549592000025,1673.6890240000066,['l'],1,[3.1318366000050446],[None],1673.6897978000052,1673.7044178999931,1673.7044178999931,1673.7044178999931,1675.0886452999985,5,1.3830821000010474,5,1.3830821000010474,,,,,,sub140_AB,001,2026-02-02_20h09.36.682,recognitionstage,,2025.1.1,59.915578951629584,2026-02-02 20h10.11.266714 +0530,
,,,21,21,0,19,frames\Vid19_BB_T.png,frames\Vid19_L.png,['l'],1,[3.515979100004188],[None],5,1.7987502000032691,,,,,0,21,21,18,1675.1229357999982,,24,Male,Right handed,Corrected to normal,,,,,,,,,,,,,,,,,,,,,,,,,,,,,,,,,,,,,,,,1675.1023046000046,1675.1229357999982,1675.1229357999982,1675.1229357999982,1675.1229357999982,1675.1229357999982,1675.1229357999982,1678.640101500001,['l'],1,[3.515979100004188],[None],1678.641057899993,1678.6538793000072,1678.6538793000072,1678.6538793000072,1680.454686099998,5,1.7987502000032691,5,1.7987502000032691,,,,,,sub140_AB,001,2026-02-02_20h09.36.682,recognitionstage,,2025.1.1,59.915578951629584,2026-02-02 20h10.11.266714 +0530,
,,,22,22,0,1,frames\Vid1_EM_T.png,frames\Vid1_L.png,['r'],1,[5.629875800004811],[None],5,1.130139999993844,,,,,0,22,22,0,1680.521374799995,,24,Male,Right handed,Corrected to normal,,,,,,,,,,,,,,,,,,,,,,,,,,,,,,,,,,,,,,,,1680.5013675999944,1680.521374799995,1680.521374799995,1680.521374799995,1680.521374799995,1680.521374799995,1680.521374799995,1686.1570288000075,['r'],1,[5.629875800004811],[None],1686.158280500007,1686.1710663999984,1686.1710663999984,1686.1710663999984,1687.3057401999977,5,1.130139999993844,5,1.130139999993844,,,,,,sub140_AB,001,2026-02-02_20h09.36.682,recognitionstage,,2025.1.1,59.915578951629584,2026-02-02 20h10.11.266714 +0530,
,,,23,23,0,11,frames\Vid11_EM_T.png,frames\Vid11_L.png,['r'],1,[1.9444237999996403],[None],5,0.6968007999967085,,,,,0,23,23,10,1687.3746997999988,,24,Male,Right handed,Corrected to normal,,,,,,,,,,,,,,,,,,,,,,,,,,,,,,,,,,,,,,,,1687.349547100006,1687.3746997999988,1687.3746997999988,1687.3746997999988,1687.3746997999988,1687.3746997999988,1687.3746997999988,1689.3239440000034,['r'],1,[1.9444237999996403],[None],1689.325287700005,1689.3374076000036,1689.3374076000036,1689.3374076000036,1690.0386521000037,5,0.6968007999967085,5,0.6968007999967085,,,,,,sub140_AB,001,2026-02-02_20h09.36.682,recognitionstage,,2025.1.1,59.915578951629584,2026-02-02 20h10.11.266714 +0530,
,,,24,24,0,16,frames\Vid16_EM_T.png,frames\Vid16_L.png,['l'],0,[3.6995622999966145],[None],4,1.7313591999991331,,,,,0,24,24,15,1690.107364399999,,24,Male,Right handed,Corrected to normal,,,,,,,,,,,,,,,,,,,,,,,,,,,,,,,,,,,,,,,,1690.0833567999944,1690.107364399999,1690.107364399999,1690.107364399999,1690.107364399999,1690.107364399999,1690.107364399999,1693.8234660000016,['l'],0,[3.6995622999966145],[None],1693.8240443999966,1693.8373299999948,1693.8373299999948,1693.8373299999948,1695.571205100001,4,1.7313591999991331,4,1.7313591999991331,,,,,,sub140_AB,001,2026-02-02_20h09.36.682,recognitionstage,,2025.1.1,59.915578951629584,2026-02-02 20h10.11.266714 +0530,
,,,25,25,0,4,frames\Vid4_EM_T.png,frames\Vid4_L.png,['l'],0,[2.7497564000077546],[None],5,1.9163788000005297,,,,,0,25,25,3,1695.6410905999946,,24,Male,Right handed,Corrected to normal,,,,,,,,,,,,,,,,,,,,,,,,,,,,,,,,,,,,,,,,1695.615866799999,1695.6410905999946,1695.6410905999946,1695.6410905999946,1695.6410905999946,1695.6410905999946,1695.6410905999946,1698.4055973000068,['l'],0,[2.7497564000077546],[None],1698.4064250999945,1698.4216386000044,1698.4216386000044,1698.4216386000044,1700.3384718000016,5,1.9163788000005297,5,1.9163788000005297,,,,,,sub140_AB,001,2026-02-02_20h09.36.682,recognitionstage,,2025.1.1,59.915578951629584,2026-02-02 20h10.11.266714 +0530,
,,,26,26,0,31,frames\Vid31_EM_T.png,frames\Vid31_L.png,['r'],1,[1.920042600002489],[None],5,0.5964422999968519,,,,,0,26,26,30,1700.359166299997,,24,Male,Right handed,Corrected to normal,,,,,,,,,,,,,,,,,,,,,,,,,,,,,,,,,,,,,,,,1700.3472692000068,1700.359166299997,1700.359166299997,1700.359166299997,1700.359166299997,1700.359166299997,1700.359166299997,1702.291294499999,['r'],1,[1.920042600002489],[None],1702.2925611999963,1702.304069699996,1702.304069699996,1702.304069699996,1702.9051408999949,5,0.5964422999968519,5,0.5964422999968519,,,,,,sub140_AB,001,2026-02-02_20h09.36.682,recognitionstage,,2025.1.1,59.915578951629584,2026-02-02 20h10.11.266714 +0530,
,,,27,27,0,39,frames\Vid39_BB_T.png,frames\Vid39_L.png,['r'],1,[3.644058900012169],[None],5,0.7648099999933038,,,,,0,27,27,38,1702.9228300999966,,24,Male,Right handed,Corrected to normal,,,,,,,,,,,,,,,,,,,,,,,,,,,,,,,,,,,,,,,,1702.9136786000017,1702.9228300999966,1702.9228300999966,1702.9228300999966,1702.9228300999966,1702.9228300999966,1702.9228300999966,1706.5728109000047,['r'],1,[3.644058900012169],[None],1706.5736114000028,1706.5880292999937,1706.5880292999937,1706.5880292999937,1707.3556548000051,5,0.7648099999933038,5,0.7648099999933038,,,,,,sub140_AB,001,2026-02-02_20h09.36.682,recognitionstage,,2025.1.1,59.915578951629584,2026-02-02 20h10.11.266714 +0530,
,,,28,28,0,13,frames\Vid13_BB_T.png,frames\Vid13_L.png,['l'],1,[3.1055464999953983],[None],3,1.5476396000012755,,,,,0,28,28,12,1707.4053243999952,,24,Male,Right handed,Corrected to normal,,,,,,,,,,,,,,,,,,,,,,,,,,,,,,,,,,,,,,,,1707.389077300002,1707.4053243999952,1707.4053243999952,1707.4053243999952,1707.4053243999952,1707.4053243999952,1707.4053243999952,1710.5234344000055,['l'],1,[3.1055464999953983],[None],1710.5243655999948,1710.5372095000057,1710.5372095000057,1710.5372095000057,1712.089086299995,3,1.5476396000012755,3,1.5476396000012755,,,,,,sub140_AB,001,2026-02-02_20h09.36.682,recognitionstage,,2025.1.1,59.915578951629584,2026-02-02 20h10.11.266714 +0530,
,,,29,29,0,14,frames\Vid14_BB_T.png,frames\Vid14_L.png,['l'],1,[3.401681000003009],[None],5,1.9317947000090498,,,,,0,29,29,13,1712.157325799999,,24,Male,Right handed,Corrected to normal,,,,,,,,,,,,,,,,,,,,,,,,,,,,,,,,,,,,,,,,1712.1341241000046,1712.157325799999,1712.157325799999,1712.157325799999,1712.157325799999,1712.157325799999,1712.157325799999,1715.5734877000068,['l'],1,[3.401681000003009],[None],1715.5746081999969,1715.587362899998,1715.587362899998,1715.587362899998,1717.5211931999947,5,1.9317947000090498,5,1.9317947000090498,,,,,,sub140_AB,001,2026-02-02_20h09.36.682,recognitionstage,,2025.1.1,59.915578951629584,2026-02-02 20h10.11.266714 +0530,
,,,30,30,0,28,frames\Vid28_EM_T.png,frames\Vid28_L.png,['r'],1,[1.7446923999959836],[None],5,0.898574799997732,,,,,0,30,30,27,1717.5421478000062,,24,Male,Right handed,Corrected to normal,,,,,,,,,,,,,,,,,,,,,,,,,,,,,,,,,,,,,,,,1717.5319746000023,1717.5421478000062,1717.5421478000062,1717.5421478000062,1717.5421478000062,1717.5421478000062,1717.5421478000062,1719.2890296999976,['r'],1,[1.7446923999959836],[None],1719.289786399997,1719.3046009999962,1719.3046009999962,1719.3046009999962,1720.2056262999977,5,0.898574799997732,5,0.898574799997732,,,,,,sub140_AB,001,2026-02-02_20h09.36.682,recognitionstage,,2025.1.1,59.915578951629584,2026-02-02 20h10.11.266714 +0530,
,,,31,31,0,37,frames\Vid37_BB_T.png,frames\Vid37_L.png,['r'],1,[2.44154780000099],[None],5,1.3480826999875717,,,,,0,31,31,36,1720.2374685999966,,24,Male,Right handed,Corrected to normal,,,,,,,,,,,,,,,,,,,,,,,,,,,,,,,,,,,,,,,,1720.2183717000007,1720.2374685999966,1720.2374685999966,1720.2374685999966,1720.2374685999966,1720.2374685999966,1720.2374685999966,1722.690068900003,['r'],1,[2.44154780000099],[None],1722.6906912999984,1722.7042331999983,1722.7042331999983,1722.7042331999983,1724.055705699997,5,1.3480826999875717,5,1.3480826999875717,,,,,,sub140_AB,001,2026-02-02_20h09.36.682,recognitionstage,,2025.1.1,59.915578951629584,2026-02-02 20h10.11.266714 +0530,
,,,32,32,0,22,frames\Vid22_EM_T.png,frames\Vid22_L.png,['r'],1,[4.607189500005916],[None],5,0.765282299995306,,,,,0,32,32,21,1724.087631500006,,24,Male,Right handed,Corrected to normal,,,,,,,,,,,,,,,,,,,,,,,,,,,,,,,,,,,,,,,,1724.0690510999993,1724.087631500006,1724.087631500006,1724.087631500006,1724.087631500006,1724.087631500006,1724.087631500006,1728.706740900001,['r'],1,[4.607189500005916],[None],1728.7075440000044,1728.7207415000012,1728.7207415000012,1728.7207415000012,1729.488026299994,5,0.765282299995306,5,0.765282299995306,,,,,,sub140_AB,001,2026-02-02_20h09.36.682,recognitionstage,,2025.1.1,59.915578951629584,2026-02-02 20h10.11.266714 +0530,
,,,33,33,0,3,frames\Vid3_BB_T.png,frames\Vid3_L.png,['r'],1,[1.3406186000065645],[None],5,0.42978160000348,,,,,0,33,33,2,1729.538217399997,,24,Male,Right handed,Corrected to normal,,,,,,,,,,,,,,,,,,,,,,,,,,,,,,,,,,,,,,,,1729.529540500007,1729.538217399997,1729.538217399997,1729.538217399997,1729.538217399997,1729.538217399997,1729.538217399997,1730.8905926000007,['r'],1,[1.3406186000065645],[None],1730.8918823999993,1730.9193392000016,1730.9193392000016,1730.9193392000016,1731.3384890000016,5,0.42978160000348,5,0.42978160000348,,,,,,sub140_AB,001,2026-02-02_20h09.36.682,recognitionstage,,2025.1.1,59.915578951629584,2026-02-02 20h10.11.266714 +0530,
,,,34,34,0,9,frames\Vid9_EM_T.png,frames\Vid9_L.png,['r'],1,[2.928171799998381],[None],5,0.6316014000040013,,,,,0,34,34,8,1731.3906779999961,,24,Male,Right handed,Corrected to normal,,,,,,,,,,,,,,,,,,,,,,,,,,,,,,,,,,,,,,,,1731.3761386999977,1731.3906779999961,1731.3906779999961,1731.3906779999961,1731.3906779999961,1731.3906779999961,1731.3906779999961,1734.3226755000069,['r'],1,[2.928171799998381],[None],1734.3235772000044,1734.3378192999953,1734.3378192999953,1734.3378192999953,1734.9716168000014,5,0.6316014000040013,5,0.6316014000040013,,,,,,sub140_AB,001,2026-02-02_20h09.36.682,recognitionstage,,2025.1.1,59.915578951629584,2026-02-02 20h10.11.266714 +0530,
,,,35,35,0,7,frames\Vid7_EM_T.png,frames\Vid7_L.png,['r'],1,[3.3747363000002224],[None],5,0.39758140000049025,,,,,0,35,35,6,1735.0401897999982,,24,Male,Right handed,Corrected to normal,,,,,,,,,,,,,,,,,,,,,,,,,,,,,,,,,,,,,,,,1735.0171164000058,1735.0401897999982,1735.0401897999982,1735.0401897999982,1735.0401897999982,1735.0401897999982,1735.0401897999982,1738.4241273999942,['r'],1,[3.3747363000002224],[None],1738.4252455999958,1738.437253600001,1738.437253600001,1738.437253600001,1738.838379599998,5,0.39758140000049025,5,0.39758140000049025,,,,,,sub140_AB,001,2026-02-02_20h09.36.682,recognitionstage,,2025.1.1,59.915578951629584,2026-02-02 20h10.11.266714 +0530,
,,,36,36,0,29,frames\Vid29_BB_T.png,frames\Vid29_L.png,['r'],1,[2.9334737000026507],[None],5,0.38066840000101365,,,,,0,36,36,28,1738.8732997000043,,24,Male,Right handed,Corrected to normal,,,,,,,,,,,,,,,,,,,,,,,,,,,,,,,,,,,,,,,,1738.8493236000068,1738.8732997000043,1738.8732997000043,1738.8732997000043,1738.8732997000043,1738.8732997000043,1738.8732997000043,1741.8235041000007,['r'],1,[2.9334737000026507],[None],1741.8244335000054,1741.8378450000018,1741.8378450000018,1741.8378450000018,1742.2225376999995,5,0.38066840000101365,5,0.38066840000101365,,,,,,sub140_AB,001,2026-02-02_20h09.36.682,recognitionstage,,2025.1.1,59.915578951629584,2026-02-02 20h10.11.266714 +0530,
,,,37,37,0,23,frames\Vid23_EM_T.png,frames\Vid23_L.png,['l'],1,[2.336615799998981],[None],5,1.698020700001507,,,,,0,37,37,22,1742.254222100004,,24,Male,Right handed,Corrected to normal,,,,,,,,,,,,,,,,,,,,,,,,,,,,,,,,,,,,,,,,1742.2382950000028,1742.254222100004,1742.254222100004,1742.254222100004,1742.254222100004,1742.254222100004,1742.254222100004,1744.606991099994,['l'],1,[2.336615799998981],[None],1744.6080880999943,1744.6206112999935,1744.6206112999935,1744.6206112999935,1746.321473899996,5,1.698020700001507,5,1.698020700001507,,,,,,sub140_AB,001,2026-02-02_20h09.36.682,recognitionstage,,2025.1.1,59.915578951629584,2026-02-02 20h10.11.266714 +0530,
,,,38,38,0,10,frames\Vid10_BB_T.png,frames\Vid10_L.png,['r'],0,[3.5713134999969043],[None],5,0.9144687999942107,,,,,0,38,38,9,1746.3714597999933,,24,Male,Right handed,Corrected to normal,,,,,,,,,,,,,,,,,,,,,,,,,,,,,,,,,,,,,,,,1746.3637134000019,1746.3714597999933,1746.3714597999933,1746.3714597999933,1746.3714597999933,1746.3714597999933,1746.3714597999933,1749.9564791000012,['r'],0,[3.5713134999969043],[None],1749.9573538999975,1749.9706633000023,1749.9706633000023,1749.9706633000023,1750.889122099994,5,0.9144687999942107,5,0.9144687999942107,,,,,,sub140_AB,001,2026-02-02_20h09.36.682,recognitionstage,,2025.1.1,59.915578951629584,2026-02-02 20h10.11.266714 +0530,
,,,39,39,0,12,frames\Vid12_EM_T.png,frames\Vid12_L.png,['r'],1,[2.4809525000018766],[None],5,0.5146011999895563,,,,,0,39,39,11,1750.957958900006,,24,Male,Right handed,Corrected to normal,,,,,,,,,,,,,,,,,,,,,,,,,,,,,,,,,,,,,,,,1750.933280600002,1750.957958900006,1750.957958900006,1750.957958900006,1750.957958900006,1750.957958900006,1750.957958900006,1753.4400752000074,['r'],1,[2.4809525000018766],[None],1753.4409698999953,1753.4539362000069,1753.4539362000069,1753.4539362000069,1753.9723251999967,5,0.5146011999895563,5,0.5146011999895563,,,,,,sub140_AB,001,2026-02-02_20h09.36.682,recognitionstage,,2025.1.1,59.915578951629584,2026-02-02 20h10.11.266714 +0530,
,,,,,,,,,,,,,,,,,,,,,,,,,24,Male,Right handed,Corrected to normal,,,,,,,,,,,,,,,,,,,,,,,,,,,,,,,,,,,,,,,,,,,,,,,,,,,,,,,,,,,,,1753.972455199997,1753.9880888000043,1753.9880888000043,1773.9742770000012,None,sub140_AB,001,2026-02-02_20h09.36.682,recognitionstage,,2025.1.1,59.915578951629584,2026-02-02 20h10.11.266714 +0530,
