path,duration,is_repeat,thisN,thisTrialN,thisRepN,movie_id,target_img,lure_img,resp.keys,resp.corr,resp.rt,resp.duration,conf_radio.response,conf_radio.rt,movie.thisRepN,movie.thisTrialN,movie.thisN,movie.thisIndex,recogloop.thisRepN,recogloop.thisTrialN,recogloop.thisN,recogloop.thisIndex,thisRow.t,notes,age,gender,handedness,vision,caffeine_2h,alcohol_smoke_12h,demographics.started,demographics.stopped,Instructions.started,text1.started,key_resp.started,Instructions.stopped,key_resp.keys,key_resp.rt,key_resp.duration,instruction_2.started,text2.started,key_resp_2.started,instruction_2.stopped,key_resp_2.keys,key_resp_2.rt,key_resp_2.duration,Videos.started,movie_2.started,vigilance_resp.started,movie_2.stopped,Videos.stopped,movie.vigilance_resp.keys,vigilance_pressed,vigilance_correct,ISI.started,text.started,ISI.stopped,text.stopped,movie.vigilance_resp.rt,movie.vigilance_resp.duration,recognition.started,text_4.started,key_resp_3.started,recognition.stopped,key_resp_3.keys,key_resp_3.rt,key_resp_3.duration,recognition_task.started,leftimage.started,rightimage.started,resp.started,frames_question.started,right_label.started,left_label.started,recognition_task.stopped,recogloop.resp.keys,recogloop.resp.corr,recogloop.resp.rt,recogloop.resp.duration,confidence.started,conf_text.started,conf_radio.started,conf_label.started,confidence.stopped,recogloop.conf_radio.response,recogloop.conf_radio.rt,confidence,confidence_rt,thank_you.started,text_6.started,key_resp_4.started,thank_you.stopped,key_resp_4.keys,key_resp_4.rt,key_resp_4.duration,participant,session,date,expName,expVersion,psychopyVersion,frameRate,expStart,...105
,,,,,,,,,,,,,,,,,,,,,,,,,23,Male,Right handed,Corrected to normal,Caffeine consumed in last 2 hours?,Alcohol or smoking in last 12 hours?,0.011028000037185848,0.013392699998803437,,,,,,,,,,,,,,,,,,,,,,,,,,,,,,,,,,,,,,,,,,,,,,,,,,,,,,,,,,,,,,,,sub108_AB,001,2026-01-31_15h05.18.427,recognitionstage,,2025.1.1,59.98228123187895,2026-01-31 15h06.09.653457 +0530,
,,,,,,,,,,,,,,,,,,,,,,,,,23,Male,Right handed,Corrected to normal,,,,,0.013414400047622621,0.030136800021864474,0.030136800021864474,11.148405600048136,space,11.112584999995306,None,,,,,,,,,,,,,,,,,,,,,,,,,,,,,,,,,,,,,,,,,,,,,,,,,,,,,,,,,sub108_AB,001,2026-01-31_15h05.18.427,recognitionstage,,2025.1.1,59.98228123187895,2026-01-31 15h06.09.653457 +0530,
,,,,,,,,,,,,,,,,,,,,,,,,,23,Male,Right handed,Corrected to normal,,,,,,,,,,,,11.148464100027923,11.164950300008059,11.164950300008059,24.167034000041895,space,12.985437600000296,None,,,,,,,,,,,,,,,,,,,,,,,,,,,,,,,,,,,,,,,,,,,,,,,,,,sub108_AB,001,2026-01-31_15h05.18.427,recognitionstage,,2025.1.1,59.98228123187895,2026-01-31 15h06.09.653457 +0530,
abrupt_videos\abrupt_9.mp4,19,0,44,44,0,,,,,,,,,,0,44,44,10,,,,,1555.2633314999985,,23,Male,Right handed,Corrected to normal,,,,,,,,,,,,,,,,,,,1555.2225640999968,1555.2633314999985,1555.2633314999985,1574.6794272999978,1574.5243081999943,None,0,1,1574.6607188000344,1574.6794272999978,1577.1656580000417,1430.1797059000237,3.3149081000010483,None,1577.1657580000465,1577.1799716000096,1577.1799716000096,1611.9156271000393,space,34.72293709998485,None,,,,,,,,,,,,,,,,,,,,,,,,,,,,,sub108_AB,001,2026-01-31_15h05.18.427,recognitionstage,,2025.1.1,59.98228123187895,2026-01-31 15h06.09.653457 +0530,
,,,0,0,0,2,frames\Vid2_BB_T.png,frames\Vid2_L.png,['r'],1,[6.29177890002029],[None],5,10.348937000031583,,,,,0,0,0,1,1611.9789107000106,,23,Male,Right handed,Corrected to normal,,,,,,,,,,,,,,,,,,,,,,,,,,,,,,,,,,,,,,,,1611.9642949000117,1611.9789107000106,1611.9789107000106,1611.9789107000106,1611.9789107000106,1611.9789107000106,1611.9789107000106,1618.2814918000367,['r'],1,[6.29177890002029],[None],1618.2823833000148,1618.2969044000492,1618.2969044000492,1618.2969044000492,1628.6473721000366,5,10.348937000031583,5,10.348937000031583,,,,,,,,sub108_AB,001,2026-01-31_15h05.18.427,recognitionstage,,2025.1.1,59.98228123187895,2026-01-31 15h06.09.653457 +0530,
,,,1,1,0,20,frames\Vid20_EM_T.png,frames\Vid20_L.png,['r'],1,[8.151331199973356],[None],4,4.329999600013252,,,,,0,1,1,19,1628.6954802999971,,23,Male,Right handed,Corrected to normal,,,,,,,,,,,,,,,,,,,,,,,,,,,,,,,,,,,,,,,,1628.675056100008,1628.6954802999971,1628.6954802999971,1628.6954802999971,1628.6954802999971,1628.6954802999971,1628.6954802999971,1636.850189400022,['r'],1,[8.151331199973356],[None],1636.851157099998,1636.863233400043,1636.863233400043,1636.863233400043,1641.197009399999,4,4.329999600013252,4,4.329999600013252,,,,,,,,sub108_AB,001,2026-01-31_15h05.18.427,recognitionstage,,2025.1.1,59.98228123187895,2026-01-31 15h06.09.653457 +0530,
,,,2,2,0,8,frames\Vid8_BB_T.png,frames\Vid8_L.png,['r'],1,[12.399174500023946],[None],3,2.1150067999842577,,,,,0,2,2,7,1641.247468799993,,23,Male,Right handed,Corrected to normal,,,,,,,,,,,,,,,,,,,,,,,,,,,,,,,,,,,,,,,,1641.2349356000195,1641.247468799993,1641.247468799993,1641.247468799993,1641.247468799993,1641.247468799993,1641.247468799993,1653.648891400022,['r'],1,[12.399174500023946],[None],1653.6497744999942,1653.6638515000232,1653.6638515000232,1653.6638515000232,1655.7804988000426,3,2.1150067999842577,3,2.1150067999842577,,,,,,,,sub108_AB,001,2026-01-31_15h05.18.427,recognitionstage,,2025.1.1,59.98228123187895,2026-01-31 15h06.09.653457 +0530,
,,,3,3,0,35,frames\Vid35_EM_T.png,frames\Vid35_L.png,['l'],1,[5.677009799983352],[None],3,2.5815458000288345,,,,,0,3,3,34,1655.801758500049,,23,Male,Right handed,Corrected to normal,,,,,,,,,,,,,,,,,,,,,,,,,,,,,,,,,,,,,,,,1655.7894032000331,1655.801758500049,1655.801758500049,1655.801758500049,1655.801758500049,1655.801758500049,1655.801758500049,1661.4823127000127,['l'],1,[5.677009799983352],[None],1661.4832957000472,1661.4971706999931,1661.4971706999931,1661.4971706999931,1664.0805323999957,3,2.5815458000288345,3,2.5815458000288345,,,,,,,,sub108_AB,001,2026-01-31_15h05.18.427,recognitionstage,,2025.1.1,59.98228123187895,2026-01-31 15h06.09.653457 +0530,
,,,4,4,0,23,frames\Vid23_EM_T.png,frames\Vid23_L.png,['l'],1,[6.181354100001045],[None],3,3.280738700006623,,,,,0,4,4,22,1664.113458000007,,23,Male,Right handed,Corrected to normal,,,,,,,,,,,,,,,,,,,,,,,,,,,,,,,,,,,,,,,,1664.0953874000115,1664.113458000007,1664.113458000007,1664.113458000007,1664.113458000007,1664.113458000007,1664.113458000007,1670.2993569000391,['l'],1,[6.181354100001045],[None],1670.3004073000047,1670.3134145000367,1670.3134145000367,1670.3134145000367,1673.5981631000177,3,3.280738700006623,3,3.280738700006623,,,,,,,,sub108_AB,001,2026-01-31_15h05.18.427,recognitionstage,,2025.1.1,59.98228123187895,2026-01-31 15h06.09.653457 +0530,
,,,5,5,0,11,frames\Vid11_EM_T.png,frames\Vid11_L.png,['r'],1,[3.055328599992208],[None],4,2.8646899000159465,,,,,0,5,5,10,1673.647412899998,,23,Male,Right handed,Corrected to normal,,,,,,,,,,,,,,,,,,,,,,,,,,,,,,,,,,,,,,,,1673.640490300022,1673.647412899998,1673.647412899998,1673.647412899998,1673.647412899998,1673.647412899998,1673.647412899998,1676.7154012999963,['r'],1,[3.055328599992208],[None],1676.7164199000108,1676.7303310999996,1676.7303310999996,1676.7303310999996,1679.5981370999943,4,2.8646899000159465,4,2.8646899000159465,,,,,,,,sub108_AB,001,2026-01-31_15h05.18.427,recognitionstage,,2025.1.1,59.98228123187895,2026-01-31 15h06.09.653457 +0530,
,,,6,6,0,36,frames\Vid36_BB_T.png,frames\Vid36_L.png,['r'],0,[17.822320099978242],[None],1,4.781504799961112,,,,,0,6,6,35,1679.632386900019,,23,Male,Right handed,Corrected to normal,,,,,,,,,,,,,,,,,,,,,,,,,,,,,,,,,,,,,,,,1679.6113224000437,1679.632386900019,1679.632386900019,1679.632386900019,1679.632386900019,1679.632386900019,1679.632386900019,1697.4650717000477,['r'],0,[17.822320099978242],[None],1697.4662965000025,1697.480282100034,1697.480282100034,1697.480282100034,1702.263915700023,1,4.781504799961112,1,4.781504799961112,,,,,,,,sub108_AB,001,2026-01-31_15h05.18.427,recognitionstage,,2025.1.1,59.98228123187895,2026-01-31 15h06.09.653457 +0530,
,,,7,7,0,21,frames\Vid21_BB_T.png,frames\Vid21_L.png,['r'],1,[16.43826900003478],[None],3,1.4656187000218779,,,,,0,7,7,20,1702.2964667000342,,23,Male,Right handed,Corrected to normal,,,,,,,,,,,,,,,,,,,,,,,,,,,,,,,,,,,,,,,,1702.2758227000013,1702.2964667000342,1702.2964667000342,1702.2964667000342,1702.2964667000342,1702.2964667000342,1702.2964667000342,1718.7482848000363,['r'],1,[16.43826900003478],[None],1718.7489134999923,1718.763449900027,1718.763449900027,1718.763449900027,1720.2310397000401,3,1.4656187000218779,3,1.4656187000218779,,,,,,,,sub108_AB,001,2026-01-31_15h05.18.427,recognitionstage,,2025.1.1,59.98228123187895,2026-01-31 15h06.09.653457 +0530,
,,,8,8,0,13,frames\Vid13_BB_T.png,frames\Vid13_L.png,['l'],0,[6.806123499991372],[None],2,2.097545499971602,,,,,0,8,8,12,1720.28066030005,,23,Male,Right handed,Corrected to normal,,,,,,,,,,,,,,,,,,,,,,,,,,,,,,,,,,,,,,,,1720.264814299997,1720.28066030005,1720.28066030005,1720.28066030005,1720.28066030005,1720.28066030005,1720.28066030005,1727.099586700031,['l'],0,[6.806123499991372],[None],1727.1007303000079,1727.128080800001,1727.128080800001,1727.128080800001,1729.2139534000307,2,2.097545499971602,2,2.097545499971602,,,,,,,,sub108_AB,001,2026-01-31_15h05.18.427,recognitionstage,,2025.1.1,59.98228123187895,2026-01-31 15h06.09.653457 +0530,
,,,9,9,0,29,frames\Vid29_BB_T.png,frames\Vid29_L.png,['l'],1,[18.35780130000785],[None],3,1.964963800041005,,,,,0,9,9,28,1729.2491045000497,,23,Male,Right handed,Corrected to normal,,,,,,,,,,,,,,,,,,,,,,,,,,,,,,,,,,,,,,,,1729.2252932999982,1729.2491045000497,1729.2491045000497,1729.2491045000497,1729.2491045000497,1729.2491045000497,1729.2491045000497,1747.615579000034,['l'],1,[18.35780130000785],[None],1747.6166887000436,1747.630460400018,1747.630460400018,1747.630460400018,1749.59807430004,3,1.964963800041005,3,1.964963800041005,,,,,,,,sub108_AB,001,2026-01-31_15h05.18.427,recognitionstage,,2025.1.1,59.98228123187895,2026-01-31 15h06.09.653457 +0530,
,,,10,10,0,4,frames\Vid4_EM_T.png,frames\Vid4_L.png,['l'],0,[11.766609999991488],[None],4,3.2654424000065774,,,,,0,10,10,3,1749.6641506000306,,23,Male,Right handed,Corrected to normal,,,,,,,,,,,,,,,,,,,,,,,,,,,,,,,,,,,,,,,,1749.6462008000235,1749.6641506000306,1749.6641506000306,1749.6641506000306,1749.6641506000306,1749.6641506000306,1749.6641506000306,1761.4313111000229,['l'],0,[11.766609999991488],[None],1761.4320504000061,1761.4470274000196,1761.4470274000196,1761.4470274000196,1764.7147767000133,4,3.2654424000065774,4,3.2654424000065774,,,,,,,,sub108_AB,001,2026-01-31_15h05.18.427,recognitionstage,,2025.1.1,59.98228123187895,2026-01-31 15h06.09.653457 +0530,
,,,11,11,0,1,frames\Vid1_EM_T.png,frames\Vid1_L.png,['l'],1,[4.038869399984833],[None],4,2.097841199953109,,,,,0,11,11,0,1764.783862500044,,23,Male,Right handed,Corrected to normal,,,,,,,,,,,,,,,,,,,,,,,,,,,,,,,,,,,,,,,,1764.765538000036,1764.783862500044,1764.783862500044,1764.783862500044,1764.783862500044,1764.783862500044,1764.783862500044,1768.8327253000461,['l'],1,[4.038869399984833],[None],1768.8334920000052,1768.8469064999954,1768.8469064999954,1768.8469064999954,1770.947907200025,4,2.097841199953109,4,2.097841199953109,,,,,,,,sub108_AB,001,2026-01-31_15h05.18.427,recognitionstage,,2025.1.1,59.98228123187895,2026-01-31 15h06.09.653457 +0530,
,,,12,12,0,7,frames\Vid7_EM_T.png,frames\Vid7_L.png,['r'],1,[11.413752600026783],[None],3,3.5308892999892123,,,,,0,12,12,6,1771.0170635000104,,23,Male,Right handed,Corrected to normal,,,,,,,,,,,,,,,,,,,,,,,,,,,,,,,,,,,,,,,,1770.9913281000336,1771.0170635000104,1771.0170635000104,1771.0170635000104,1771.0170635000104,1771.0170635000104,1771.0170635000104,1782.4331774000311,['r'],1,[11.413752600026783],[None],1782.4340972999926,1782.4467957000015,1782.4467957000015,1782.4467957000015,1785.9812601000303,3,3.5308892999892123,3,3.5308892999892123,,,,,,,,sub108_AB,001,2026-01-31_15h05.18.427,recognitionstage,,2025.1.1,59.98228123187895,2026-01-31 15h06.09.653457 +0530,
,,,13,13,0,3,frames\Vid3_BB_T.png,frames\Vid3_L.png,['l'],1,[4.269689399981871],[None],4,1.997915700019803,,,,,0,13,13,2,1786.0331092000124,,23,Male,Right handed,Corrected to normal,,,,,,,,,,,,,,,,,,,,,,,,,,,,,,,,,,,,,,,,1786.0224053999991,1786.0331092000124,1786.0331092000124,1786.0331092000124,1786.0331092000124,1786.0331092000124,1786.0331092000124,1790.3160358000314,['l'],1,[4.269689399981871],[None],1790.3170828000293,1790.329962800024,1790.329962800024,1790.329962800024,1792.3310141999973,4,1.997915700019803,4,1.997915700019803,,,,,,,,sub108_AB,001,2026-01-31_15h05.18.427,recognitionstage,,2025.1.1,59.98228123187895,2026-01-31 15h06.09.653457 +0530,
,,,14,14,0,38,frames\Vid38_EM_T.png,frames\Vid38_L.png,['r'],1,[17.561362500011455],[None],1,1.5809996000025421,,,,,0,14,14,37,1792.365656100039,,23,Male,Right handed,Corrected to normal,,,,,,,,,,,,,,,,,,,,,,,,,,,,,,,,,,,,,,,,1792.3418983000447,1792.365656100039,1792.365656100039,1792.365656100039,1792.365656100039,1792.365656100039,1792.365656100039,1809.9324476000038,['r'],1,[17.561362500011455],[None],1809.933548400004,1809.947068700043,1809.947068700043,1809.947068700043,1811.530356800009,1,1.5809996000025421,1,1.5809996000025421,,,,,,,,sub108_AB,001,2026-01-31_15h05.18.427,recognitionstage,,2025.1.1,59.98228123187895,2026-01-31 15h06.09.653457 +0530,
,,,15,15,0,37,frames\Vid37_BB_T.png,frames\Vid37_L.png,['r'],1,[6.315418699989095],[None],4,1.631459399999585,,,,,0,15,15,36,1811.5633402999956,,23,Male,Right handed,Corrected to normal,,,,,,,,,,,,,,,,,,,,,,,,,,,,,,,,,,,,,,,,1811.542614200036,1811.5633402999956,1811.5633402999956,1811.5633402999956,1811.5633402999956,1811.5633402999956,1811.5633402999956,1817.8825736000435,['r'],1,[6.315418699989095],[None],1817.88342930004,1817.8967148000374,1817.8967148000374,1817.8967148000374,1819.531053100014,4,1.631459399999585,4,1.631459399999585,,,,,,,,sub108_AB,001,2026-01-31_15h05.18.427,recognitionstage,,2025.1.1,59.98228123187895,2026-01-31 15h06.09.653457 +0530,
,,,16,16,0,26,frames\Vid26_EM_T.png,frames\Vid26_L.png,['r'],1,[2.7795925000100397],[None],4,1.6975211999961175,,,,,0,16,16,25,1819.5632062000223,,23,Male,Right handed,Corrected to normal,,,,,,,,,,,,,,,,,,,,,,,,,,,,,,,,,,,,,,,,1819.547697400034,1819.5632062000223,1819.5632062000223,1819.5632062000223,1819.5632062000223,1819.5632062000223,1819.5632062000223,1822.3493953000288,['r'],1,[2.7795925000100397],[None],1822.3503736000275,1822.3634927000385,1822.3634927000385,1822.3634927000385,1824.0644317000406,4,1.6975211999961175,4,1.6975211999961175,,,,,,,,sub108_AB,001,2026-01-31_15h05.18.427,recognitionstage,,2025.1.1,59.98228123187895,2026-01-31 15h06.09.653457 +0530,
,,,17,17,0,9,frames\Vid9_EM_T.png,frames\Vid9_L.png,['l'],1,[6.212904300016817],[None],4,2.313771499961149,,,,,0,17,17,8,1824.1141375000007,,23,Male,Right handed,Corrected to normal,,,,,,,,,,,,,,,,,,,,,,,,,,,,,,,,,,,,,,,,1824.1018185000285,1824.1141375000007,1824.1141375000007,1824.1141375000007,1824.1141375000007,1824.1141375000007,1824.1141375000007,1830.3331266000168,['l'],1,[6.212904300016817],[None],1830.334094699996,1830.3466025000089,1830.3466025000089,1830.3466025000089,1832.6641616999987,4,2.313771499961149,4,2.313771499961149,,,,,,,,sub108_AB,001,2026-01-31_15h05.18.427,recognitionstage,,2025.1.1,59.98228123187895,2026-01-31 15h06.09.653457 +0530,
,,,18,18,0,31,frames\Vid31_EM_T.png,frames\Vid31_L.png,['r'],1,[2.634640500007663],[None],4,1.329997499997262,,,,,0,18,18,30,1832.6841395000229,,23,Male,Right handed,Corrected to normal,,,,,,,,,,,,,,,,,,,,,,,,,,,,,,,,,,,,,,,,1832.672413900029,1832.6841395000229,1832.6841395000229,1832.6841395000229,1832.6841395000229,1832.6841395000229,1832.6841395000229,1835.3330657000188,['r'],1,[2.634640500007663],[None],1835.3346006000065,1835.3466026000096,1835.3466026000096,1835.3466026000096,1836.680903600005,4,1.329997499997262,4,1.329997499997262,,,,,,,,sub108_AB,001,2026-01-31_15h05.18.427,recognitionstage,,2025.1.1,59.98228123187895,2026-01-31 15h06.09.653457 +0530,
,,,19,19,0,18,frames\Vid18_EM_T.png,frames\Vid18_L.png,['l'],1,[7.461959500040393],[None],4,1.6981427000137046,,,,,0,19,19,17,1836.7130245000008,,23,Male,Right handed,Corrected to normal,,,,,,,,,,,,,,,,,,,,,,,,,,,,,,,,,,,,,,,,1836.692138900049,1836.7130245000008,1836.7130245000008,1836.7130245000008,1836.7130245000008,1836.7130245000008,1836.7130245000008,1844.1817609000136,['l'],1,[7.461959500040393],[None],1844.1826027000207,1844.1972852000035,1844.1972852000035,1844.1972852000035,1845.8979867000016,4,1.6981427000137046,4,1.6981427000137046,,,,,,,,sub108_AB,001,2026-01-31_15h05.18.427,recognitionstage,,2025.1.1,59.98228123187895,2026-01-31 15h06.09.653457 +0530,
,,,20,20,0,28,frames\Vid28_EM_T.png,frames\Vid28_L.png,['l'],1,[3.6692069999990053],[None],5,1.7973023999948055,,,,,0,20,20,27,1845.930103300023,,23,Male,Right handed,Corrected to normal,,,,,,,,,,,,,,,,,,,,,,,,,,,,,,,,,,,,,,,,1845.9102976000286,1845.930103300023,1845.930103300023,1845.930103300023,1845.930103300023,1845.930103300023,1845.930103300023,1849.6162431000266,['l'],1,[3.6692069999990053],[None],1849.617342100013,1849.629873900034,1849.629873900034,1849.629873900034,1851.4304770000163,5,1.7973023999948055,5,1.7973023999948055,,,,,,,,sub108_AB,001,2026-01-31_15h05.18.427,recognitionstage,,2025.1.1,59.98228123187895,2026-01-31 15h06.09.653457 +0530,
,,,21,21,0,32,frames\Vid32_EM_T.png,frames\Vid32_L.png,['l'],1,[2.8717093000304885],[None],5,1.7315675999852829,,,,,0,21,21,31,1851.463046399993,,23,Male,Right handed,Corrected to normal,,,,,,,,,,,,,,,,,,,,,,,,,,,,,,,,,,,,,,,,1851.4421680000378,1851.463046399993,1851.463046399993,1851.463046399993,1851.463046399993,1851.463046399993,1851.463046399993,1854.349059500033,['l'],1,[2.8717093000304885],[None],1854.350001600047,1854.3633850000333,1854.3633850000333,1854.3633850000333,1856.0973997000256,5,1.7315675999852829,5,1.7315675999852829,,,,,,,,sub108_AB,001,2026-01-31_15h05.18.427,recognitionstage,,2025.1.1,59.98228123187895,2026-01-31 15h06.09.653457 +0530,
,,,22,22,0,34,frames\Vid34_BB_T.png,frames\Vid34_L.png,['r'],0,[5.156465700012632],[None],2,1.5482057000044733,,,,,0,22,22,33,1856.1301863000263,,23,Male,Right handed,Corrected to normal,,,,,,,,,,,,,,,,,,,,,,,,,,,,,,,,,,,,,,,,1856.1085916000302,1856.1301863000263,1856.1301863000263,1856.1301863000263,1856.1301863000263,1856.1301863000263,1856.1301863000263,1861.298612500017,['r'],0,[5.156465700012632],[None],1861.2996741000097,1861.3286550000194,1861.3286550000194,1861.3286550000194,1862.8636633999995,2,1.5482057000044733,2,1.5482057000044733,,,,,,,,sub108_AB,001,2026-01-31_15h05.18.427,recognitionstage,,2025.1.1,59.98228123187895,2026-01-31 15h06.09.653457 +0530,
,,,23,23,0,27,frames\Vid27_BB_T.png,frames\Vid27_L.png,['l'],1,[3.068798699998297],[None],3,1.798812699969858,,,,,0,23,23,26,1862.8820453000371,,23,Male,Right handed,Corrected to normal,,,,,,,,,,,,,,,,,,,,,,,,,,,,,,,,,,,,,,,,1862.8718648000504,1862.8820453000371,1862.8820453000371,1862.8820453000371,1862.8820453000371,1862.8820453000371,1862.8820453000371,1865.9645283000427,['l'],1,[3.068798699998297],[None],1865.9656103000161,1865.9803152999957,1865.9803152999957,1865.9803152999957,1867.7808438000502,3,1.798812699969858,3,1.798812699969858,,,,,,,,sub108_AB,001,2026-01-31_15h05.18.427,recognitionstage,,2025.1.1,59.98228123187895,2026-01-31 15h06.09.653457 +0530,
,,,24,24,0,19,frames\Vid19_BB_T.png,frames\Vid19_L.png,['l'],0,[3.809127999993507],[None],3,1.5985435999464244,,,,,0,24,24,18,1867.8135977000347,,23,Male,Right handed,Corrected to normal,,,,,,,,,,,,,,,,,,,,,,,,,,,,,,,,,,,,,,,,1867.7934481000411,1867.8135977000347,1867.8135977000347,1867.8135977000347,1867.8135977000347,1867.8135977000347,1867.8135977000347,1871.632400100003,['l'],0,[3.809127999993507],[None],1871.633286700002,1871.6466645000037,1871.6466645000037,1871.6466645000037,1873.2475225999951,3,1.5985435999464244,3,1.5985435999464244,,,,,,,,sub108_AB,001,2026-01-31_15h05.18.427,recognitionstage,,2025.1.1,59.98228123187895,2026-01-31 15h06.09.653457 +0530,
,,,25,25,0,5,frames\Vid5_EM_T.png,frames\Vid5_L.png,['r'],1,[11.101568999991287],[None],2,1.4810547000379302,,,,,0,25,25,4,1873.2971824000124,,23,Male,Right handed,Corrected to normal,,,,,,,,,,,,,,,,,,,,,,,,,,,,,,,,,,,,,,,,1873.2773966999957,1873.2971824000124,1873.2971824000124,1873.2971824000124,1873.2971824000124,1873.2971824000124,1873.2971824000124,1884.4156304000062,['r'],1,[11.101568999991287],[None],1884.4164720000117,1884.4305400000303,1884.4305400000303,1884.4305400000303,1885.9142807000317,2,1.4810547000379302,2,1.4810547000379302,,,,,,,,sub108_AB,001,2026-01-31_15h05.18.427,recognitionstage,,2025.1.1,59.98228123187895,2026-01-31 15h06.09.653457 +0530,
,,,26,26,0,17,frames\Vid17_BB_T.png,frames\Vid17_L.png,['r'],1,[4.017624699976295],[None],4,3.247036000015214,,,,,0,26,26,16,1885.949067700014,,23,Male,Right handed,Corrected to normal,,,,,,,,,,,,,,,,,,,,,,,,,,,,,,,,,,,,,,,,1885.9394313000375,1885.949067700014,1885.949067700014,1885.949067700014,1885.949067700014,1885.949067700014,1885.949067700014,1889.9831306000124,['r'],1,[4.017624699976295],[None],1889.9846318000345,1889.9971473000478,1889.9971473000478,1889.9971473000478,1893.2472961000167,4,3.247036000015214,4,3.247036000015214,,,,,,,,sub108_AB,001,2026-01-31_15h05.18.427,recognitionstage,,2025.1.1,59.98228123187895,2026-01-31 15h06.09.653457 +0530,
,,,27,27,0,14,frames\Vid14_BB_T.png,frames\Vid14_L.png,['l'],1,[5.923272199986968],[None],2,1.7647462000022642,,,,,0,27,27,13,1893.3155461000279,,23,Male,Right handed,Corrected to normal,,,,,,,,,,,,,,,,,,,,,,,,,,,,,,,,,,,,,,,,1893.291895500035,1893.3155461000279,1893.3155461000279,1893.3155461000279,1893.3155461000279,1893.3155461000279,1893.3155461000279,1899.249352200015,['l'],1,[5.923272199986968],[None],1899.250555000035,1899.2640062000137,1899.2640062000137,1899.2640062000137,1901.0309046000475,2,1.7647462000022642,2,1.7647462000022642,,,,,,,,sub108_AB,001,2026-01-31_15h05.18.427,recognitionstage,,2025.1.1,59.98228123187895,2026-01-31 15h06.09.653457 +0530,
,,,28,28,0,15,frames\Vid15_BB_T.png,frames\Vid15_L.png,['r'],1,[5.890346599975601],[None],4,2.064872400020249,,,,,0,28,28,14,1901.10036890005,,23,Male,Right handed,Corrected to normal,,,,,,,,,,,,,,,,,,,,,,,,,,,,,,,,,,,,,,,,1901.0789454000187,1901.10036890005,1901.10036890005,1901.10036890005,1901.10036890005,1901.10036890005,1901.10036890005,1906.9986855000025,['r'],1,[5.890346599975601],[None],1906.999593500048,1907.013975000009,1907.013975000009,1907.013975000009,1909.0813125999994,4,2.064872400020249,4,2.064872400020249,,,,,,,,sub108_AB,001,2026-01-31_15h05.18.427,recognitionstage,,2025.1.1,59.98228123187895,2026-01-31 15h06.09.653457 +0530,
,,,29,29,0,6,frames\Vid6_BB_T.png,frames\Vid6_L.png,['r'],1,[9.249165299988817],[None],4,1.099049299955368,,,,,0,29,29,5,1909.1334574000211,,23,Male,Right handed,Corrected to normal,,,,,,,,,,,,,,,,,,,,,,,,,,,,,,,,,,,,,,,,1909.1237142000464,1909.1334574000211,1909.1334574000211,1909.1334574000211,1909.1334574000211,1909.1334574000211,1909.1334574000211,1918.3977514000144,['r'],1,[9.249165299988817],[None],1918.3983968000393,1918.413711400004,1918.413711400004,1918.413711400004,1919.5145158999949,4,1.099049299955368,4,1.099049299955368,,,,,,,,sub108_AB,001,2026-01-31_15h05.18.427,recognitionstage,,2025.1.1,59.98228123187895,2026-01-31 15h06.09.653457 +0530,
,,,30,30,0,33,frames\Vid33_BB_T.png,frames\Vid33_L.png,['r'],1,[3.6653479999513365],[None],4,1.4820784000330605,,,,,0,30,30,32,1919.549568300019,,23,Male,Right handed,Corrected to normal,,,,,,,,,,,,,,,,,,,,,,,,,,,,,,,,,,,,,,,,1919.5247987000039,1919.549568300019,1919.549568300019,1919.549568300019,1919.549568300019,1919.549568300019,1919.549568300019,1923.2314131000312,['r'],1,[3.6653479999513365],[None],1923.2321735000005,1923.246986400045,1923.246986400045,1923.246986400045,1924.7308707000338,4,1.4820784000330605,4,1.4820784000330605,,,,,,,,sub108_AB,001,2026-01-31_15h05.18.427,recognitionstage,,2025.1.1,59.98228123187895,2026-01-31 15h06.09.653457 +0530,
,,,31,31,0,10,frames\Vid10_BB_T.png,frames\Vid10_L.png,['l'],1,[2.5058062999742106],[None],4,1.5478477000142448,,,,,0,31,31,9,1924.7808834000025,,23,Male,Right handed,Corrected to normal,,,,,,,,,,,,,,,,,,,,,,,,,,,,,,,,,,,,,,,,1924.773229100043,1924.7808834000025,1924.7808834000025,1924.7808834000025,1924.7808834000025,1924.7808834000025,1924.7808834000025,1927.2991664000438,['l'],1,[2.5058062999742106],[None],1927.2999449000345,1927.3136382999946,1927.3136382999946,1927.3136382999946,1928.8643793000374,4,1.5478477000142448,4,1.5478477000142448,,,,,,,,sub108_AB,001,2026-01-31_15h05.18.427,recognitionstage,,2025.1.1,59.98228123187895,2026-01-31 15h06.09.653457 +0530,
,,,32,32,0,24,frames\Vid24_BB_T.png,frames\Vid24_L.png,['l'],1,[4.026592400041409],[None],5,1.6486287000006996,,,,,0,32,32,23,1928.9001392000355,,23,Male,Right handed,Corrected to normal,,,,,,,,,,,,,,,,,,,,,,,,,,,,,,,,,,,,,,,,1928.876620199997,1928.9001392000355,1928.9001392000355,1928.9001392000355,1928.9001392000355,1928.9001392000355,1928.9001392000355,1932.9318255000398,['l'],1,[4.026592400041409],[None],1932.932693300012,1932.9475401000236,1932.9475401000236,1932.9475401000236,1934.5975493000005,5,1.6486287000006996,5,1.6486287000006996,,,,,,,,sub108_AB,001,2026-01-31_15h05.18.427,recognitionstage,,2025.1.1,59.98228123187895,2026-01-31 15h06.09.653457 +0530,
,,,33,33,0,40,frames\Vid40_EM_T.png,frames\Vid40_L.png,['l'],1,[7.479201599955559],[None],4,1.7478048000484705,,,,,0,33,33,39,1934.6156752000097,,23,Male,Right handed,Corrected to normal,,,,,,,,,,,,,,,,,,,,,,,,,,,,,,,,,,,,,,,,1934.6046842000214,1934.6156752000097,1934.6156752000097,1934.6156752000097,1934.6156752000097,1934.6156752000097,1934.6156752000097,1942.0987210000167,['l'],1,[7.479201599955559],[None],1942.0998666000087,1942.1137676000362,1942.1137676000362,1942.1137676000362,1943.8638878000202,4,1.7478048000484705,4,1.7478048000484705,,,,,,,,sub108_AB,001,2026-01-31_15h05.18.427,recognitionstage,,2025.1.1,59.98228123187895,2026-01-31 15h06.09.653457 +0530,
,,,34,34,0,30,frames\Vid30_EM_T.png,frames\Vid30_L.png,['l'],1,[6.32466319995001],[None],4,1.4980319000314921,,,,,0,34,34,29,1943.8821297000395,,23,Male,Right handed,Corrected to normal,,,,,,,,,,,,,,,,,,,,,,,,,,,,,,,,,,,,,,,,1943.8726882000337,1943.8821297000395,1943.8821297000395,1943.8821297000395,1943.8821297000395,1943.8821297000395,1943.8821297000395,1950.216205500008,['l'],1,[6.32466319995001],[None],1950.2171408000286,1950.2299015000463,1950.2299015000463,1950.2299015000463,1951.7308806999936,4,1.4980319000314921,4,1.4980319000314921,,,,,,,,sub108_AB,001,2026-01-31_15h05.18.427,recognitionstage,,2025.1.1,59.98228123187895,2026-01-31 15h06.09.653457 +0530,
,,,35,35,0,25,frames\Vid25_BB_T.png,frames\Vid25_L.png,['r'],1,[3.47512130002724],[None],3,1.2990467000054196,,,,,0,35,35,24,1951.7635681999964,,23,Male,Right handed,Corrected to normal,,,,,,,,,,,,,,,,,,,,,,,,,,,,,,,,,,,,,,,,1951.743899299996,1951.7635681999964,1951.7635681999964,1951.7635681999964,1951.7635681999964,1951.7635681999964,1951.7635681999964,1955.248544000031,['r'],1,[3.47512130002724],[None],1955.249277200026,1955.2633013000013,1955.2633013000013,1955.2633013000013,1956.563809400017,3,1.2990467000054196,3,1.2990467000054196,,,,,,,,sub108_AB,001,2026-01-31_15h05.18.427,recognitionstage,,2025.1.1,59.98228123187895,2026-01-31 15h06.09.653457 +0530,
,,,36,36,0,16,frames\Vid16_EM_T.png,frames\Vid16_L.png,['r'],1,[2.104983400029596],[None],3,1.2130149999866262,,,,,0,36,36,15,1956.6138868000126,,23,Male,Right handed,Corrected to normal,,,,,,,,,,,,,,,,,,,,,,,,,,,,,,,,,,,,,,,,1956.602722300042,1956.6138868000126,1956.6138868000126,1956.6138868000126,1956.6138868000126,1956.6138868000126,1956.6138868000126,1958.733726800012,['r'],1,[2.104983400029596],[None],1958.7353730000323,1958.7616766000283,1958.7616766000283,1958.7616766000283,1959.9638900000136,3,1.2130149999866262,3,1.2130149999866262,,,,,,,,sub108_AB,001,2026-01-31_15h05.18.427,recognitionstage,,2025.1.1,59.98228123187895,2026-01-31 15h06.09.653457 +0530,
,,,37,37,0,22,frames\Vid22_EM_T.png,frames\Vid22_L.png,['l'],1,[3.2792605999857187],[None],3,1.129730099986773,,,,,0,37,37,21,1959.9994697000366,,23,Male,Right handed,Corrected to normal,,,,,,,,,,,,,,,,,,,,,,,,,,,,,,,,,,,,,,,,1959.9758864000323,1959.9994697000366,1959.9994697000366,1959.9994697000366,1959.9994697000366,1959.9994697000366,1959.9994697000366,1963.2834754000069,['l'],1,[3.2792605999857187],[None],1963.285183900036,1963.29650940001,1963.29650940001,1963.29650940001,1964.4305353999953,3,1.129730099986773,3,1.129730099986773,,,,,,,,sub108_AB,001,2026-01-31_15h05.18.427,recognitionstage,,2025.1.1,59.98228123187895,2026-01-31 15h06.09.653457 +0530,
,,,38,38,0,12,frames\Vid12_EM_T.png,frames\Vid12_L.png,['l'],1,[2.4459248000057414],[None],4,1.298083100002259,,,,,0,38,38,11,1964.4808376000146,,23,Male,Right handed,Corrected to normal,,,,,,,,,,,,,,,,,,,,,,,,,,,,,,,,,,,,,,,,1964.4728366000345,1964.4808376000146,1964.4808376000146,1964.4808376000146,1964.4808376000146,1964.4808376000146,1964.4808376000146,1966.932483600045,['l'],1,[2.4459248000057414],[None],1966.9333140000235,1966.9464748000028,1966.9464748000028,1966.9464748000028,1968.2472353000194,4,1.298083100002259,4,1.298083100002259,,,,,,,,sub108_AB,001,2026-01-31_15h05.18.427,recognitionstage,,2025.1.1,59.98228123187895,2026-01-31 15h06.09.653457 +0530,
,,,39,39,0,39,frames\Vid39_BB_T.png,frames\Vid39_L.png,['r'],1,[4.618512400018517],[None],4,1.164197200036142,,,,,0,39,39,38,1968.268257000018,,23,Male,Right handed,Corrected to normal,,,,,,,,,,,,,,,,,,,,,,,,,,,,,,,,,,,,,,,,1968.2553590000025,1968.268257000018,1968.268257000018,1968.268257000018,1968.268257000018,1968.268257000018,1968.268257000018,1972.899569000001,['r'],1,[4.618512400018517],[None],1972.900490500033,1972.913355900033,1972.913355900033,1972.913355900033,1974.0811524000019,4,1.164197200036142,4,1.164197200036142,,,,,,,,sub108_AB,001,2026-01-31_15h05.18.427,recognitionstage,,2025.1.1,59.98228123187895,2026-01-31 15h06.09.653457 +0530,
,,,,,,,,,,,,,,,,,,,,,,,,,23,Male,Right handed,Corrected to normal,,,,,,,,,,,,,,,,,,,,,,,,,,,,,,,,,,,,,,,,,,,,,,,,,,,,,,,,,,,,,1974.0812938000308,1974.097702500003,1974.097702500003,1979.53231520002,space,5.42112009995617,None,sub108_AB,001,2026-01-31_15h05.18.427,recognitionstage,,2025.1.1,59.98228123187895,2026-01-31 15h06.09.653457 +0530,
