path,duration,is_repeat,thisN,thisTrialN,thisRepN,movie_id,target_img,lure_img,resp.keys,resp.corr,resp.rt,resp.duration,conf_radio.response,conf_radio.rt,movie.thisRepN,movie.thisTrialN,movie.thisN,movie.thisIndex,recogloop.thisRepN,recogloop.thisTrialN,recogloop.thisN,recogloop.thisIndex,thisRow.t,notes,age,gender,handedness,vision,caffeine_2h,alcohol_smoke_12h,demographics.started,demographics.stopped,Instructions.started,text1.started,key_resp.started,Instructions.stopped,key_resp.keys,key_resp.rt,key_resp.duration,instruction_2.started,text2.started,key_resp_2.started,instruction_2.stopped,key_resp_2.keys,key_resp_2.rt,key_resp_2.duration,Videos.started,movie_2.started,vigilance_resp.started,movie_2.stopped,Videos.stopped,movie.vigilance_resp.keys,vigilance_pressed,vigilance_correct,ISI.started,text.started,ISI.stopped,text.stopped,movie.vigilance_resp.rt,movie.vigilance_resp.duration,recognition.started,text_4.started,key_resp_3.started,recognition.stopped,key_resp_3.keys,key_resp_3.rt,key_resp_3.duration,recognition_task.started,leftimage.started,rightimage.started,resp.started,frames_question.started,right_label.started,left_label.started,recognition_task.stopped,recogloop.resp.keys,recogloop.resp.corr,recogloop.resp.rt,recogloop.resp.duration,confidence.started,conf_text.started,conf_radio.started,conf_label.started,confidence.stopped,recogloop.conf_radio.response,recogloop.conf_radio.rt,confidence,confidence_rt,thank_you.started,text_6.started,key_resp_4.started,text_6.stopped,key_resp_4.stopped,thank_you.stopped,key_resp_4.keys,participant,session,date,expName,expVersion,psychopyVersion,frameRate,expStart,...105
,,,,,,,,,,,,,,,,,,,,,,,,,22,Male,Right handed,Corrected to normal,Caffeine consumed in last 2 hours?,Alcohol or smoking in last 12 hours?,0.018188799993367866,0.020541699981549755,,,,,,,,,,,,,,,,,,,,,,,,,,,,,,,,,,,,,,,,,,,,,,,,,,,,,,,,,,,,,,,,subh170_NB,001,2026-02-03_22h39.39.071,recognitionstage,,2025.1.1,60.3427103927639,2026-02-03 22h40.23.527404 +0530,
,,,,,,,,,,,,,,,,,,,,,,,,,22,Male,Right handed,Corrected to normal,,,,,0.02056309999898076,0.03681649998179637,0.03681649998179637,9.487552299979143,space,9.446612700005062,None,,,,,,,,,,,,,,,,,,,,,,,,,,,,,,,,,,,,,,,,,,,,,,,,,,,,,,,,,subh170_NB,001,2026-02-03_22h39.39.071,recognitionstage,,2025.1.1,60.3427103927639,2026-02-03 22h40.23.527404 +0530,
,,,,,,,,,,,,,,,,,,,,,,,,,22,Male,Right handed,Corrected to normal,,,,,,,,,,,,9.487590699980501,9.504609600000549,9.504609600000549,17.82293879997451,space,8.31503800000064,None,,,,,,,,,,,,,,,,,,,,,,,,,,,,,,,,,,,,,,,,,,,,,,,,,,subh170_NB,001,2026-02-03_22h39.39.071,recognitionstage,,2025.1.1,60.3427103927639,2026-02-03 22h40.23.527404 +0530,
Trimmed_videos/natural_22.mp4,34,0,44,44,0,,,,,,,,,,0,44,44,24,,,,,1507.5862875999883,,22,Male,Right handed,Corrected to normal,,,,,,,,,,,,,,,,,,,1507.5338026999962,1507.5862875999883,1507.5862875999883,1542.2188934999867,1542.069589199993,None,0,1,1542.2041381999734,1542.2188934999867,1544.7051108999876,1507.5862875999883,6.00918379999348,None,1544.7051868999843,1544.7202132999955,1544.7202132999955,1576.9546883000003,space,32.21872720000101,None,,,,,,,,,,,,,,,,,,,,,,,,,,,,,subh170_NB,001,2026-02-03_22h39.39.071,recognitionstage,,2025.1.1,60.3427103927639,2026-02-03 22h40.23.527404 +0530,
,,,0,0,0,14,frames\Vid14_BB_T.png,frames\Vid14_L.png,['l'],1,[3.0724451999994926],[None],5,4.080529700004263,,,,,0,0,0,13,1577.0183547999768,,22,Male,Right handed,Corrected to normal,,,,,,,,,,,,,,,,,,,,,,,,,,,,,,,,,,,,,,,,1577.0102762999886,1577.0183547999768,1577.0183547999768,1577.0183547999768,1577.0183547999768,1577.0183547999768,1577.0183547999768,1580.1058418999892,['l'],1,[3.0724451999994926],[None],1580.107078799978,1580.1340918999922,1580.1340918999922,1580.1340918999922,1584.2029635999934,5,4.080529700004263,5,4.080529700004263,,,,,,,,subh170_NB,001,2026-02-03_22h39.39.071,recognitionstage,,2025.1.1,60.3427103927639,2026-02-03 22h40.23.527404 +0530,
,,,1,1,0,28,frames\Vid28_EM_T.png,frames\Vid28_L.png,['l'],1,[3.8474099000159185],[None],5,1.2959743999817874,,,,,0,1,1,27,1584.2517684999912,,22,Male,Right handed,Corrected to normal,,,,,,,,,,,,,,,,,,,,,,,,,,,,,,,,,,,,,,,,1584.2305742999888,1584.2517684999912,1584.2517684999912,1584.2517684999912,1584.2517684999912,1584.2517684999912,1584.2517684999912,1588.1066747999866,['l'],1,[3.8474099000159185],[None],1588.108082199993,1588.1192431999953,1588.1192431999953,1588.1192431999953,1589.4198515999888,5,1.2959743999817874,5,1.2959743999817874,,,,,,,,subh170_NB,001,2026-02-03_22h39.39.071,recognitionstage,,2025.1.1,60.3427103927639,2026-02-03 22h40.23.527404 +0530,
,,,2,2,0,13,frames\Vid13_BB_T.png,frames\Vid13_L.png,['r'],0,[3.7567216999887023],[None],5,1.3161613999982364,,,,,0,2,2,12,1589.4701601999986,,22,Male,Right handed,Corrected to normal,,,,,,,,,,,,,,,,,,,,,,,,,,,,,,,,,,,,,,,,1589.452541799983,1589.4701601999986,1589.4701601999986,1589.4701601999986,1589.4701601999986,1589.4701601999986,1589.4701601999986,1593.2371144999925,['r'],0,[3.7567216999887023],[None],1593.2376959999965,1593.2531104999944,1593.2531104999944,1593.2531104999944,1594.5700607999752,5,1.3161613999982364,5,1.3161613999982364,,,,,,,,subh170_NB,001,2026-02-03_22h39.39.071,recognitionstage,,2025.1.1,60.3427103927639,2026-02-03 22h40.23.527404 +0530,
,,,3,3,0,6,frames\Vid6_BB_T.png,frames\Vid6_L.png,['r'],1,[5.483393300004536],[None],5,1.298297100001946,,,,,0,3,3,5,1594.6395010999986,,22,Male,Right handed,Corrected to normal,,,,,,,,,,,,,,,,,,,,,,,,,,,,,,,,,,,,,,,,1594.6218181999866,1594.6395010999986,1594.6395010999986,1594.6395010999986,1594.6395010999986,1594.6395010999986,1594.6395010999986,1600.1375904000015,['r'],1,[5.483393300004536],[None],1600.1385916,1600.1533043999807,1600.1533043999807,1600.1533043999807,1601.4542636999977,5,1.298297100001946,5,1.298297100001946,,,,,,,,subh170_NB,001,2026-02-03_22h39.39.071,recognitionstage,,2025.1.1,60.3427103927639,2026-02-03 22h40.23.527404 +0530,
,,,4,4,0,36,frames\Vid36_BB_T.png,frames\Vid36_L.png,['r'],1,[4.945482400013134],[None],3,1.7638699999952223,,,,,0,4,4,35,1601.4893306999875,,22,Male,Right handed,Corrected to normal,,,,,,,,,,,,,,,,,,,,,,,,,,,,,,,,,,,,,,,,1601.4685527999827,1601.4893306999875,1601.4893306999875,1601.4893306999875,1601.4893306999875,1601.4893306999875,1601.4893306999875,1606.438882699993,['r'],1,[4.945482400013134],[None],1606.44002129999,1606.4525818999973,1606.4525818999973,1606.4525818999973,1608.2198828999826,3,1.7638699999952223,3,1.7638699999952223,,,,,,,,subh170_NB,001,2026-02-03_22h39.39.071,recognitionstage,,2025.1.1,60.3427103927639,2026-02-03 22h40.23.527404 +0530,
,,,5,5,0,40,frames\Vid40_EM_T.png,frames\Vid40_L.png,['r'],1,[2.9967687999887858],[None],5,1.1306694000086281,,,,,0,5,5,39,1608.2381795999827,,22,Male,Right handed,Corrected to normal,,,,,,,,,,,,,,,,,,,,,,,,,,,,,,,,,,,,,,,,1608.2272524999862,1608.2381795999827,1608.2381795999827,1608.2381795999827,1608.2381795999827,1608.2381795999827,1608.2381795999827,1611.2388269999938,['r'],1,[2.9967687999887858],[None],1611.2398810999875,1611.2526276999852,1611.2526276999852,1611.2526276999852,1612.3866267999983,5,1.1306694000086281,5,1.1306694000086281,,,,,,,,subh170_NB,001,2026-02-03_22h39.39.071,recognitionstage,,2025.1.1,60.3427103927639,2026-02-03 22h40.23.527404 +0530,
,,,6,6,0,39,frames\Vid39_BB_T.png,frames\Vid39_L.png,['r'],1,[4.502301100001205],[None],5,1.249088299984578,,,,,0,6,6,38,1612.404599499976,,22,Male,Right handed,Corrected to normal,,,,,,,,,,,,,,,,,,,,,,,,,,,,,,,,,,,,,,,,1612.3950674999796,1612.404599499976,1612.404599499976,1612.404599499976,1612.404599499976,1612.404599499976,1612.404599499976,1616.921259099996,['r'],1,[4.502301100001205],[None],1616.9221456999949,1616.936364299996,1616.936364299996,1616.936364299996,1618.186320399982,5,1.249088299984578,5,1.249088299984578,,,,,,,,subh170_NB,001,2026-02-03_22h39.39.071,recognitionstage,,2025.1.1,60.3427103927639,2026-02-03 22h40.23.527404 +0530,
,,,7,7,0,23,frames\Vid23_EM_T.png,frames\Vid23_L.png,['l'],1,[4.1203100999991875],[None],4,1.2482983999943826,,,,,0,7,7,22,1618.2190161999897,,22,Male,Right handed,Corrected to normal,,,,,,,,,,,,,,,,,,,,,,,,,,,,,,,,,,,,,,,,1618.200226999994,1618.2190161999897,1618.2190161999897,1618.2190161999897,1618.2190161999897,1618.2190161999897,1618.2190161999897,1622.35465199998,['l'],1,[4.1203100999991875],[None],1622.3554836999974,1622.369608399982,1622.369608399982,1622.369608399982,1623.6199817000015,4,1.2482983999943826,4,1.2482983999943826,,,,,,,,subh170_NB,001,2026-02-03_22h39.39.071,recognitionstage,,2025.1.1,60.3427103927639,2026-02-03 22h40.23.527404 +0530,
,,,8,8,0,32,frames\Vid32_EM_T.png,frames\Vid32_L.png,['l'],1,[2.421992300020065],[None],5,1.148440599994501,,,,,0,8,8,31,1623.6528366999992,,22,Male,Right handed,Corrected to normal,,,,,,,,,,,,,,,,,,,,,,,,,,,,,,,,,,,,,,,,1623.631315799983,1623.6528366999992,1623.6528366999992,1623.6528366999992,1623.6528366999992,1623.6528366999992,1623.6528366999992,1626.0880331999797,['l'],1,[2.421992300020065],[None],1626.08897479999,1626.1033307999896,1626.1033307999896,1626.1033307999896,1627.2532792999991,5,1.148440599994501,5,1.148440599994501,,,,,,,,subh170_NB,001,2026-02-03_22h39.39.071,recognitionstage,,2025.1.1,60.3427103927639,2026-02-03 22h40.23.527404 +0530,
,,,9,9,0,37,frames\Vid37_BB_T.png,frames\Vid37_L.png,['l'],1,[2.500835000013467],[None],5,1.5482296999834944,,,,,0,9,9,36,1627.2861998000008,,22,Male,Right handed,Corrected to normal,,,,,,,,,,,,,,,,,,,,,,,,,,,,,,,,,,,,,,,,1627.2644131999987,1627.2861998000008,1627.2861998000008,1627.2861998000008,1627.2861998000008,1627.2861998000008,1627.2861998000008,1629.8048095999984,['l'],1,[2.500835000013467],[None],1629.805547899974,1629.8194360999914,1629.8194360999914,1629.8194360999914,1631.370746999979,5,1.5482296999834944,5,1.5482296999834944,,,,,,,,subh170_NB,001,2026-02-03_22h39.39.071,recognitionstage,,2025.1.1,60.3427103927639,2026-02-03 22h40.23.527404 +0530,
,,,10,10,0,18,frames\Vid18_EM_T.png,frames\Vid18_L.png,['r'],1,[4.263744200026849],[None],4,1.417343900015112,,,,,0,10,10,17,1631.4030905999825,,22,Male,Right handed,Corrected to normal,,,,,,,,,,,,,,,,,,,,,,,,,,,,,,,,,,,,,,,,1631.3821885999932,1631.4030905999825,1631.4030905999825,1631.4030905999825,1631.4030905999825,1631.4030905999825,1631.4030905999825,1635.6703447999898,['r'],1,[4.263744200026849],[None],1635.6711299000017,1635.6864747999934,1635.6864747999934,1635.6864747999934,1637.1035732999735,4,1.417343900015112,4,1.417343900015112,,,,,,,,subh170_NB,001,2026-02-03_22h39.39.071,recognitionstage,,2025.1.1,60.3427103927639,2026-02-03 22h40.23.527404 +0530,
,,,11,11,0,1,frames\Vid1_EM_T.png,frames\Vid1_L.png,['r'],1,[8.04828990000533],[None],5,1.1987339000042994,,,,,0,11,11,0,1637.1705425999826,,22,Male,Right handed,Corrected to normal,,,,,,,,,,,,,,,,,,,,,,,,,,,,,,,,,,,,,,,,1637.1506226999918,1637.1705425999826,1637.1705425999826,1637.1705425999826,1637.1705425999826,1637.1705425999826,1637.1705425999826,1645.2214196999848,['r'],1,[8.04828990000533],[None],1645.2222080999927,1645.2362001999863,1645.2362001999863,1645.2362001999863,1646.4370407999959,5,1.1987339000042994,5,1.1987339000042994,,,,,,,,subh170_NB,001,2026-02-03_22h39.39.071,recognitionstage,,2025.1.1,60.3427103927639,2026-02-03 22h40.23.527404 +0530,
,,,12,12,0,30,frames\Vid30_EM_T.png,frames\Vid30_L.png,['r'],1,[4.386351099994499],[None],4,1.3487205999845173,,,,,0,12,12,29,1646.472466599982,,22,Male,Right handed,Corrected to normal,,,,,,,,,,,,,,,,,,,,,,,,,,,,,,,,,,,,,,,,1646.4476519999735,1646.472466599982,1646.472466599982,1646.472466599982,1646.472466599982,1646.472466599982,1646.472466599982,1650.8711354999978,['r'],1,[4.386351099994499],[None],1650.8718984999869,1650.8864850999962,1650.8864850999962,1650.8864850999962,1652.23666949998,4,1.3487205999845173,4,1.3487205999845173,,,,,,,,subh170_NB,001,2026-02-03_22h39.39.071,recognitionstage,,2025.1.1,60.3427103927639,2026-02-03 22h40.23.527404 +0530,
,,,13,13,0,33,frames\Vid33_BB_T.png,frames\Vid33_L.png,['r'],1,[3.805552900012117],[None],5,0.7985661000129767,,,,,0,13,13,32,1652.2694166,,22,Male,Right handed,Corrected to normal,,,,,,,,,,,,,,,,,,,,,,,,,,,,,,,,,,,,,,,,1652.2478671999997,1652.2694166,1652.2694166,1652.2694166,1652.2694166,1652.2694166,1652.2694166,1656.0884426999837,['r'],1,[3.805552900012117],[None],1656.089378899982,1656.1025540999835,1656.1025540999835,1656.1025540999835,1656.9032330999908,5,0.7985661000129767,5,0.7985661000129767,,,,,,,,subh170_NB,001,2026-02-03_22h39.39.071,recognitionstage,,2025.1.1,60.3427103927639,2026-02-03 22h40.23.527404 +0530,
,,,14,14,0,20,frames\Vid20_EM_T.png,frames\Vid20_L.png,['l'],1,[2.217503799998667],[None],5,1.06522779999068,,,,,0,14,14,19,1656.9213042999909,,22,Male,Right handed,Corrected to normal,,,,,,,,,,,,,,,,,,,,,,,,,,,,,,,,,,,,,,,,1656.9088736999838,1656.9213042999909,1656.9213042999909,1656.9213042999909,1656.9213042999909,1656.9213042999909,1656.9213042999909,1659.1553392999922,['l'],1,[2.217503799998667],[None],1659.1563038999739,1659.169199099997,1659.169199099997,1659.169199099997,1660.2371054999821,5,1.06522779999068,5,1.06522779999068,,,,,,,,subh170_NB,001,2026-02-03_22h39.39.071,recognitionstage,,2025.1.1,60.3427103927639,2026-02-03 22h40.23.527404 +0530,
,,,15,15,0,4,frames\Vid4_EM_T.png,frames\Vid4_L.png,['l'],1,[2.043645199999446],[None],5,1.0817523000005167,,,,,0,15,15,3,1660.303210699989,,22,Male,Right handed,Corrected to normal,,,,,,,,,,,,,,,,,,,,,,,,,,,,,,,,,,,,,,,,1660.2841894000012,1660.303210699989,1660.303210699989,1660.303210699989,1660.303210699989,1660.303210699989,1660.303210699989,1662.355252199981,['l'],1,[2.043645199999446],[None],1662.3562661999895,1662.3843407999957,1662.3843407999957,1662.3843407999957,1663.4531318999943,5,1.0817523000005167,5,1.0817523000005167,,,,,,,,subh170_NB,001,2026-02-03_22h39.39.071,recognitionstage,,2025.1.1,60.3427103927639,2026-02-03 22h40.23.527404 +0530,
,,,16,16,0,16,frames\Vid16_EM_T.png,frames\Vid16_L.png,['l'],0,[11.032050500012701],[None],3,1.298530000000028,,,,,0,16,16,15,1663.522930999985,,22,Male,Right handed,Corrected to normal,,,,,,,,,,,,,,,,,,,,,,,,,,,,,,,,,,,,,,,,1663.4969986999931,1663.522930999985,1663.522930999985,1663.522930999985,1663.522930999985,1663.522930999985,1663.522930999985,1674.571543099999,['l'],0,[11.032050500012701],[None],1674.572325599991,1674.5858567999967,1674.5858567999967,1674.5858567999967,1675.886819199979,3,1.298530000000028,3,1.298530000000028,,,,,,,,subh170_NB,001,2026-02-03_22h39.39.071,recognitionstage,,2025.1.1,60.3427103927639,2026-02-03 22h40.23.527404 +0530,
,,,17,17,0,9,frames\Vid9_EM_T.png,frames\Vid9_L.png,['l'],1,[3.6393998000130523],[None],5,1.0479334999981802,,,,,0,17,17,8,1675.9394619999803,,22,Male,Right handed,Corrected to normal,,,,,,,,,,,,,,,,,,,,,,,,,,,,,,,,,,,,,,,,1675.9256131000002,1675.9394619999803,1675.9394619999803,1675.9394619999803,1675.9394619999803,1675.9394619999803,1675.9394619999803,1679.5881460999954,['l'],1,[3.6393998000130523],[None],1679.5889551999862,1679.6029058999848,1679.6029058999848,1679.6029058999848,1680.6541830999777,5,1.0479334999981802,5,1.0479334999981802,,,,,,,,subh170_NB,001,2026-02-03_22h39.39.071,recognitionstage,,2025.1.1,60.3427103927639,2026-02-03 22h40.23.527404 +0530,
,,,18,18,0,21,frames\Vid21_BB_T.png,frames\Vid21_L.png,['l'],1,[1.6981834000034723],[None],5,1.1311438000120688,,,,,0,18,18,20,1680.6885056999745,,22,Male,Right handed,Corrected to normal,,,,,,,,,,,,,,,,,,,,,,,,,,,,,,,,,,,,,,,,1680.66861969998,1680.6885056999745,1680.6885056999745,1680.6885056999745,1680.6885056999745,1680.6885056999745,1680.6885056999745,1682.3886131999898,['l'],1,[1.6981834000034723],[None],1682.3891386999749,1682.403125199984,1682.403125199984,1682.403125199984,1683.5375407999963,5,1.1311438000120688,5,1.1311438000120688,,,,,,,,subh170_NB,001,2026-02-03_22h39.39.071,recognitionstage,,2025.1.1,60.3427103927639,2026-02-03 22h40.23.527404 +0530,
,,,19,19,0,11,frames\Vid11_EM_T.png,frames\Vid11_L.png,['l'],1,[2.0713603000040166],[None],5,1.0807438000047114,,,,,0,19,19,10,1683.6034711999819,,22,Male,Right handed,Corrected to normal,,,,,,,,,,,,,,,,,,,,,,,,,,,,,,,,,,,,,,,,1683.5810774999845,1683.6034711999819,1683.6034711999819,1683.6034711999819,1683.6034711999819,1683.6034711999819,1683.6034711999819,1685.688573499996,['l'],1,[2.0713603000040166],[None],1685.6897838999867,1685.702502799977,1685.702502799977,1685.702502799977,1686.7869891999871,5,1.0807438000047114,5,1.0807438000047114,,,,,,,,subh170_NB,001,2026-02-03_22h39.39.071,recognitionstage,,2025.1.1,60.3427103927639,2026-02-03 22h40.23.527404 +0530,
,,,20,20,0,12,frames\Vid12_EM_T.png,frames\Vid12_L.png,['l'],1,[1.8592577000090387],[None],5,0.8153517999744508,,,,,0,20,20,11,1686.8557620999927,,22,Male,Right handed,Corrected to normal,,,,,,,,,,,,,,,,,,,,,,,,,,,,,,,,,,,,,,,,1686.8348931999935,1686.8557620999927,1686.8557620999927,1686.8557620999927,1686.8557620999927,1686.8557620999927,1686.8557620999927,1688.7209880999872,['l'],1,[1.8592577000090387],[None],1688.7219269999769,1688.736364099983,1688.736364099983,1688.736364099983,1689.553868499992,5,0.8153517999744508,5,0.8153517999744508,,,,,,,,subh170_NB,001,2026-02-03_22h39.39.071,recognitionstage,,2025.1.1,60.3427103927639,2026-02-03 22h40.23.527404 +0530,
,,,21,21,0,29,frames\Vid29_BB_T.png,frames\Vid29_L.png,['l'],1,[2.7817788000102155],[None],5,0.9468810000107624,,,,,0,21,21,28,1689.589132299996,,22,Male,Right handed,Corrected to normal,,,,,,,,,,,,,,,,,,,,,,,,,,,,,,,,,,,,,,,,1689.5655299999926,1689.589132299996,1689.589132299996,1689.589132299996,1689.589132299996,1689.589132299996,1689.589132299996,1692.3723226999864,['l'],1,[2.7817788000102155],[None],1692.373298999999,1692.3859086000011,1692.3859086000011,1692.3859086000011,1693.3374903999793,5,0.9468810000107624,5,0.9468810000107624,,,,,,,,subh170_NB,001,2026-02-03_22h39.39.071,recognitionstage,,2025.1.1,60.3427103927639,2026-02-03 22h40.23.527404 +0530,
,,,22,22,0,15,frames\Vid15_BB_T.png,frames\Vid15_L.png,['l'],1,[3.583371700020507],[None],5,1.0474647999799345,,,,,0,22,22,14,1693.4035397999978,,22,Male,Right handed,Corrected to normal,,,,,,,,,,,,,,,,,,,,,,,,,,,,,,,,,,,,,,,,1693.3878199999745,1693.4035397999978,1693.4035397999978,1693.4035397999978,1693.4035397999978,1693.4035397999978,1693.4035397999978,1696.9887172000017,['l'],1,[3.583371700020507],[None],1696.9898225999787,1697.0025098999904,1697.0025098999904,1697.0025098999904,1698.0542412999785,5,1.0474647999799345,5,1.0474647999799345,,,,,,,,subh170_NB,001,2026-02-03_22h39.39.071,recognitionstage,,2025.1.1,60.3427103927639,2026-02-03 22h40.23.527404 +0530,
,,,23,23,0,22,frames\Vid22_EM_T.png,frames\Vid22_L.png,['l'],1,[1.8817972000106238],[None],5,0.8478228000167292,,,,,0,23,23,21,1698.0892187999852,,22,Male,Right handed,Corrected to normal,,,,,,,,,,,,,,,,,,,,,,,,,,,,,,,,,,,,,,,,1698.068535599974,1698.0892187999852,1698.0892187999852,1698.0892187999852,1698.0892187999852,1698.0892187999852,1698.0892187999852,1699.9716233999934,['l'],1,[1.8817972000106238],[None],1699.9725102999946,1699.9858187999926,1699.9858187999926,1699.9858187999926,1700.8373987999803,5,0.8478228000167292,5,0.8478228000167292,,,,,,,,subh170_NB,001,2026-02-03_22h39.39.071,recognitionstage,,2025.1.1,60.3427103927639,2026-02-03 22h40.23.527404 +0530,
,,,24,24,0,10,frames\Vid10_BB_T.png,frames\Vid10_L.png,['l'],1,[5.027335799997672],[None],5,0.8985058000253048,,,,,0,24,24,9,1700.9036082999955,,22,Male,Right handed,Corrected to normal,,,,,,,,,,,,,,,,,,,,,,,,,,,,,,,,,,,,,,,,1700.880825499975,1700.9036082999955,1700.9036082999955,1700.9036082999955,1700.9036082999955,1700.9036082999955,1700.9036082999955,1705.9375457999995,['l'],1,[5.027335799997672],[None],1705.9382947999984,1705.953038799984,1705.953038799984,1705.953038799984,1706.8541289999848,5,0.8985058000253048,5,0.8985058000253048,,,,,,,,subh170_NB,001,2026-02-03_22h39.39.071,recognitionstage,,2025.1.1,60.3427103927639,2026-02-03 22h40.23.527404 +0530,
,,,25,25,0,27,frames\Vid27_BB_T.png,frames\Vid27_L.png,['l'],1,[8.97766859998228],[None],5,1.0137909000040963,,,,,0,25,25,26,1706.889402699977,,22,Male,Right handed,Corrected to normal,,,,,,,,,,,,,,,,,,,,,,,,,,,,,,,,,,,,,,,,1706.8672207999916,1706.889402699977,1706.889402699977,1706.889402699977,1706.889402699977,1706.889402699977,1706.889402699977,1715.8724680999876,['l'],1,[8.97766859998228],[None],1715.8734671999991,1715.8860433999798,1715.8860433999798,1715.8860433999798,1716.9036038999911,5,1.0137909000040963,5,1.0137909000040963,,,,,,,,subh170_NB,001,2026-02-03_22h39.39.071,recognitionstage,,2025.1.1,60.3427103927639,2026-02-03 22h40.23.527404 +0530,
,,,26,26,0,7,frames\Vid7_EM_T.png,frames\Vid7_L.png,['r'],0,[3.7449863999790978],[None],5,0.8659900999919046,,,,,0,26,26,6,1716.9699688999972,,22,Male,Right handed,Corrected to normal,,,,,,,,,,,,,,,,,,,,,,,,,,,,,,,,,,,,,,,,1716.9476839999843,1716.9699688999972,1716.9699688999972,1716.9699688999972,1716.9699688999972,1716.9699688999972,1716.9699688999972,1720.7209428999922,['r'],0,[3.7449863999790978],[None],1720.721607399988,1720.7359418999986,1720.7359418999986,1720.7359418999986,1721.6032479999994,5,0.8659900999919046,5,0.8659900999919046,,,,,,,,subh170_NB,001,2026-02-03_22h39.39.071,recognitionstage,,2025.1.1,60.3427103927639,2026-02-03 22h40.23.527404 +0530,
,,,27,27,0,24,frames\Vid24_BB_T.png,frames\Vid24_L.png,['r'],1,[4.676727099984419],[None],5,0.9140165999997407,,,,,0,27,27,23,1721.6385526999948,,22,Male,Right handed,Corrected to normal,,,,,,,,,,,,,,,,,,,,,,,,,,,,,,,,,,,,,,,,1721.6176377999946,1721.6385526999948,1721.6385526999948,1721.6385526999948,1721.6385526999948,1721.6385526999948,1721.6385526999948,1726.3217988999968,['r'],1,[4.676727099984419],[None],1726.3228215999843,1726.335746799974,1726.335746799974,1726.335746799974,1727.2533119999862,5,0.9140165999997407,5,0.9140165999997407,,,,,,,,subh170_NB,001,2026-02-03_22h39.39.071,recognitionstage,,2025.1.1,60.3427103927639,2026-02-03 22h40.23.527404 +0530,
,,,28,28,0,31,frames\Vid31_EM_T.png,frames\Vid31_L.png,['r'],1,[3.5082191999827046],[None],3,0.7805593999801204,,,,,0,28,28,30,1727.2709811999812,,22,Male,Right handed,Corrected to normal,,,,,,,,,,,,,,,,,,,,,,,,,,,,,,,,,,,,,,,,1727.2627543999988,1727.2709811999812,1727.2709811999812,1727.2709811999812,1727.2709811999812,1727.2709811999812,1727.2709811999812,1730.7887914999737,['r'],1,[3.5082191999827046],[None],1730.7897014999762,1730.8024592000002,1730.8024592000002,1730.8024592000002,1731.5869154999964,3,0.7805593999801204,3,0.7805593999801204,,,,,,,,subh170_NB,001,2026-02-03_22h39.39.071,recognitionstage,,2025.1.1,60.3427103927639,2026-02-03 22h40.23.527404 +0530,
,,,29,29,0,8,frames\Vid8_BB_T.png,frames\Vid8_L.png,['r'],0,[2.750064299994847],[None],5,0.8993884999945294,,,,,0,29,29,7,1731.636714399996,,22,Male,Right handed,Corrected to normal,,,,,,,,,,,,,,,,,,,,,,,,,,,,,,,,,,,,,,,,1731.6253923999902,1731.636714399996,1731.636714399996,1731.636714399996,1731.636714399996,1731.636714399996,1731.636714399996,1734.3874611999781,['r'],0,[2.750064299994847],[None],1734.3881203999917,1734.4030438999762,1734.4030438999762,1734.4030438999762,1735.3038710999826,5,0.8993884999945294,5,0.8993884999945294,,,,,,,,subh170_NB,001,2026-02-03_22h39.39.071,recognitionstage,,2025.1.1,60.3427103927639,2026-02-03 22h40.23.527404 +0530,
,,,30,30,0,2,frames\Vid2_BB_T.png,frames\Vid2_L.png,['r'],1,[4.406037799984915],[None],5,0.7317330999940168,,,,,0,30,30,1,1735.372815699986,,22,Male,Right handed,Corrected to normal,,,,,,,,,,,,,,,,,,,,,,,,,,,,,,,,,,,,,,,,1735.3471497999853,1735.372815699986,1735.372815699986,1735.372815699986,1735.372815699986,1735.372815699986,1735.372815699986,1739.7883136000019,['r'],1,[4.406037799984915],[None],1739.7890878999897,1739.8026191999961,1739.8026191999961,1739.8026191999961,1740.5370785999985,5,0.7317330999940168,5,0.7317330999940168,,,,,,,,subh170_NB,001,2026-02-03_22h39.39.071,recognitionstage,,2025.1.1,60.3427103927639,2026-02-03 22h40.23.527404 +0530,
,,,31,31,0,26,frames\Vid26_EM_T.png,frames\Vid26_L.png,['l'],1,[4.27021839999361],[None],5,0.7799448999867309,,,,,0,31,31,25,1740.5726458999852,,22,Male,Right handed,Corrected to normal,,,,,,,,,,,,,,,,,,,,,,,,,,,,,,,,,,,,,,,,1740.5543113999884,1740.5726458999852,1740.5726458999852,1740.5726458999852,1740.5726458999852,1740.5726458999852,1740.5726458999852,1744.8557618999912,['l'],1,[4.27021839999361],[None],1744.856816799991,1744.8694150999945,1744.8694150999945,1744.8694150999945,1745.6544078000006,5,0.7799448999867309,5,0.7799448999867309,,,,,,,,subh170_NB,001,2026-02-03_22h39.39.071,recognitionstage,,2025.1.1,60.3427103927639,2026-02-03 22h40.23.527404 +0530,
,,,32,32,0,5,frames\Vid5_EM_T.png,frames\Vid5_L.png,['r'],1,[2.0835553999932017],[None],5,0.9651631999877281,,,,,0,32,32,4,1745.7033406999835,,22,Male,Right handed,Corrected to normal,,,,,,,,,,,,,,,,,,,,,,,,,,,,,,,,,,,,,,,,1745.6855682999885,1745.7033406999835,1745.7033406999835,1745.7033406999835,1745.7033406999835,1745.7033406999835,1745.7033406999835,1747.788252999977,['r'],1,[2.0835553999932017],[None],1747.7891800999932,1747.8026148999925,1747.8026148999925,1747.8026148999925,1748.7702989999962,5,0.9651631999877281,5,0.9651631999877281,,,,,,,,subh170_NB,001,2026-02-03_22h39.39.071,recognitionstage,,2025.1.1,60.3427103927639,2026-02-03 22h40.23.527404 +0530,
,,,33,33,0,17,frames\Vid17_BB_T.png,frames\Vid17_L.png,['r'],1,[2.8213457000092603],[None],5,0.7974117000121623,,,,,0,33,33,16,1748.805442699988,,22,Male,Right handed,Corrected to normal,,,,,,,,,,,,,,,,,,,,,,,,,,,,,,,,,,,,,,,,1748.79712079998,1748.805442699988,1748.805442699988,1748.805442699988,1748.805442699988,1748.805442699988,1748.805442699988,1751.6383710999798,['r'],1,[2.8213457000092603],[None],1751.639546499995,1751.65306349998,1751.65306349998,1751.65306349998,1752.4536626999907,5,0.7974117000121623,5,0.7974117000121623,,,,,,,,subh170_NB,001,2026-02-03_22h39.39.071,recognitionstage,,2025.1.1,60.3427103927639,2026-02-03 22h40.23.527404 +0530,
,,,34,34,0,3,frames\Vid3_BB_T.png,frames\Vid3_L.png,['l'],1,[2.0339818999927957],[None],5,1.0638396999856923,,,,,0,34,34,2,1752.5210419999785,,22,Male,Right handed,Corrected to normal,,,,,,,,,,,,,,,,,,,,,,,,,,,,,,,,,,,,,,,,1752.50005469998,1752.5210419999785,1752.5210419999785,1752.5210419999785,1752.5210419999785,1752.5210419999785,1752.5210419999785,1754.572360799997,['l'],1,[2.0339818999927957],[None],1754.573646099976,1754.5858826999902,1754.5858826999902,1754.5858826999902,1755.6534837999789,5,1.0638396999856923,5,1.0638396999856923,,,,,,,,subh170_NB,001,2026-02-03_22h39.39.071,recognitionstage,,2025.1.1,60.3427103927639,2026-02-03 22h40.23.527404 +0530,
,,,35,35,0,35,frames\Vid35_EM_T.png,frames\Vid35_L.png,['r'],1,[4.6165819999878295],[None],5,0.9989306999777909,,,,,0,35,35,34,1755.6740992999985,,22,Male,Right handed,Corrected to normal,,,,,,,,,,,,,,,,,,,,,,,,,,,,,,,,,,,,,,,,1755.662547999993,1755.6740992999985,1755.6740992999985,1755.6740992999985,1755.6740992999985,1755.6740992999985,1755.6740992999985,1760.304791099974,['r'],1,[4.6165819999878295],[None],1760.305716199975,1760.3193195999775,1760.3193195999775,1760.3193195999775,1761.3198335999914,5,0.9989306999777909,5,0.9989306999777909,,,,,,,,subh170_NB,001,2026-02-03_22h39.39.071,recognitionstage,,2025.1.1,60.3427103927639,2026-02-03 22h40.23.527404 +0530,
,,,36,36,0,38,frames\Vid38_EM_T.png,frames\Vid38_L.png,['l'],1,[4.376560899981996],[None],5,1.0160830999957398,,,,,0,36,36,37,1761.3382182999921,,22,Male,Right handed,Corrected to normal,,,,,,,,,,,,,,,,,,,,,,,,,,,,,,,,,,,,,,,,1761.3297060999903,1761.3382182999921,1761.3382182999921,1761.3382182999921,1761.3382182999921,1761.3382182999921,1761.3382182999921,1765.720709199988,['l'],1,[4.376560899981996],[None],1765.7215553999995,1765.736444499984,1765.736444499984,1765.736444499984,1766.7537365999888,5,1.0160830999957398,5,1.0160830999957398,,,,,,,,subh170_NB,001,2026-02-03_22h39.39.071,recognitionstage,,2025.1.1,60.3427103927639,2026-02-03 22h40.23.527404 +0530,
,,,37,37,0,25,frames\Vid25_BB_T.png,frames\Vid25_L.png,['r'],1,[6.536331200011773],[None],5,0.847983599989675,,,,,0,37,37,24,1766.7864796999784,,22,Male,Right handed,Corrected to normal,,,,,,,,,,,,,,,,,,,,,,,,,,,,,,,,,,,,,,,,1766.7651480999775,1766.7864796999784,1766.7864796999784,1766.7864796999784,1766.7864796999784,1766.7864796999784,1766.7864796999784,1773.3380949999846,['r'],1,[6.536331200011773],[None],1773.3388580999745,1773.352931899979,1773.352931899979,1773.352931899979,1774.2042665999907,5,0.847983599989675,5,0.847983599989675,,,,,,,,subh170_NB,001,2026-02-03_22h39.39.071,recognitionstage,,2025.1.1,60.3427103927639,2026-02-03 22h40.23.527404 +0530,
,,,38,38,0,34,frames\Vid34_BB_T.png,frames\Vid34_L.png,['r'],1,[6.42299799999455],[None],3,1.764310700003989,,,,,0,38,38,33,1774.2360632999917,,22,Male,Right handed,Corrected to normal,,,,,,,,,,,,,,,,,,,,,,,,,,,,,,,,,,,,,,,,1774.2164328999934,1774.2360632999917,1774.2360632999917,1774.2360632999917,1774.2360632999917,1774.2360632999917,1774.2360632999917,1780.6715521999868,['r'],1,[6.42299799999455],[None],1780.6727476999804,1780.6863861999882,1780.6863861999882,1780.6863861999882,1782.454235799989,3,1.764310700003989,3,1.764310700003989,,,,,,,,subh170_NB,001,2026-02-03_22h39.39.071,recognitionstage,,2025.1.1,60.3427103927639,2026-02-03 22h40.23.527404 +0530,
,,,39,39,0,19,frames\Vid19_BB_T.png,frames\Vid19_L.png,['l'],0,[9.90880050000851],[None],3,0.8815808999934234,,,,,0,39,39,18,1782.485981899983,,22,Male,Right handed,Corrected to normal,,,,,,,,,,,,,,,,,,,,,,,,,,,,,,,,,,,,,,,,1782.4659311999858,1782.485981899983,1782.485981899983,1782.485981899983,1782.485981899983,1782.485981899983,1782.485981899983,1792.4048458999896,['l'],0,[9.90880050000851],[None],1792.4056313999754,1792.4194001999858,1792.4194001999858,1792.4194001999858,1793.303627699992,3,0.8815808999934234,3,0.8815808999934234,,,,,,,,subh170_NB,001,2026-02-03_22h39.39.071,recognitionstage,,2025.1.1,60.3427103927639,2026-02-03 22h40.23.527404 +0530,
,,,,,,,,,,,,,,,,,,,,,,,,,22,Male,Right handed,Corrected to normal,,,,,,,,,,,,,,,,,,,,,,,,,,,,,,,,,,,,,,,,,,,,,,,,,,,,,,,,,,,,,1793.3037473000004,1793.3198640999908,1793.3198640999908,1813.3194904999982,1813.3194904999982,1813.3030723999836,None,subh170_NB,001,2026-02-03_22h39.39.071,recognitionstage,,2025.1.1,60.3427103927639,2026-02-03 22h40.23.527404 +0530,
