path,duration,is_repeat,thisN,thisTrialN,thisRepN,movie_id,target_img,lure_img,resp.keys,resp.corr,resp.rt,resp.duration,conf_radio.response,conf_radio.rt,movie.thisRepN,movie.thisTrialN,movie.thisN,movie.thisIndex,recogloop.thisRepN,recogloop.thisTrialN,recogloop.thisN,recogloop.thisIndex,thisRow.t,notes,age,gender,handedness,vision,caffeine_2h,alcohol_smoke_12h,demographics.started,demographics.stopped,Instructions.started,text1.started,key_resp.started,Instructions.stopped,key_resp.keys,key_resp.rt,key_resp.duration,instruction_2.started,text2.started,key_resp_2.started,instruction_2.stopped,key_resp_2.keys,key_resp_2.rt,key_resp_2.duration,Videos.started,movie_2.started,vigilance_resp.started,movie_2.stopped,Videos.stopped,movie.vigilance_resp.keys,vigilance_pressed,vigilance_correct,ISI.started,text.started,ISI.stopped,text.stopped,movie.vigilance_resp.rt,movie.vigilance_resp.duration,recognition.started,text_4.started,key_resp_3.started,recognition.stopped,key_resp_3.keys,key_resp_3.rt,key_resp_3.duration,recognition_task.started,leftimage.started,rightimage.started,resp.started,frames_question.started,right_label.started,left_label.started,recognition_task.stopped,recogloop.resp.keys,recogloop.resp.corr,recogloop.resp.rt,recogloop.resp.duration,confidence.started,conf_text.started,conf_radio.started,conf_label.started,confidence.stopped,recogloop.conf_radio.response,recogloop.conf_radio.rt,confidence,confidence_rt,thank_you.started,text_6.started,key_resp_4.started,thank_you.stopped,key_resp_4.keys,participant,session,date,expName,expVersion,psychopyVersion,frameRate,expStart,...103
,,,,,,,,,,,,,,,,,,,,,,,,,21,Male,Right handed,Corrected to normal,Caffeine consumed in last 2 hours?,Alcohol or smoking in last 12 hours?,0.008050600008573383,0.010425100015709177,,,,,,,,,,,,,,,,,,,,,,,,,,,,,,,,,,,,,,,,,,,,,,,,,,,,,,,,,,,,,,suub174_NB,001,2026-02-04_10h07.51.704,recognitionstage,,2025.1.1,59.4432427027962,2026-02-04 10h08.42.402223 +0530,
,,,,,,,,,,,,,,,,,,,,,,,,,21,Male,Right handed,Corrected to normal,,,,,0.010447600012412295,0.026610300003085285,0.026610300003085285,6.846074800007045,space,6.803367299988167,None,,,,,,,,,,,,,,,,,,,,,,,,,,,,,,,,,,,,,,,,,,,,,,,,,,,,,,,suub174_NB,001,2026-02-04_10h07.51.704,recognitionstage,,2025.1.1,59.4432427027962,2026-02-04 10h08.42.402223 +0530,
,,,,,,,,,,,,,,,,,,,,,,,,,21,Male,Right handed,Corrected to normal,,,,,,,,,,,,6.846156500017969,6.861573900008807,6.861573900008807,20.79653310001595,space,13.920071900007315,None,,,,,,,,,,,,,,,,,,,,,,,,,,,,,,,,,,,,,,,,,,,,,,,,suub174_NB,001,2026-02-04_10h07.51.704,recognitionstage,,2025.1.1,59.4432427027962,2026-02-04 10h08.42.402223 +0530,
Trimmed_videos/natural_26.mp4,35,0,44,44,0,,,,,,,,,,0,44,44,28,,,,,1537.2421762000013,,21,Male,Right handed,Corrected to normal,,,,,,,,,,,,,,,,,,,1537.1937509000127,1537.2421762000013,1537.2421762000013,1572.8082502000034,1572.663337200007,None,0,1,1572.7979669000197,1572.8082502000034,1575.2947788000165,1575.3098074000154,1.6658866999787278,None,1575.2948694000079,1575.3098074000154,1575.3098074000154,1602.3112710000132,space,26.99911139998585,None,,,,,,,,,,,,,,,,,,,,,,,,,,,suub174_NB,001,2026-02-04_10h07.51.704,recognitionstage,,2025.1.1,59.4432427027962,2026-02-04 10h08.42.402223 +0530,
,,,0,0,0,15,frames\Vid15_BB_T.png,frames\Vid15_L.png,['l'],1,[13.181519199977629],[None],3,3.464007299975492,,,,,0,0,0,14,1602.391328400001,,21,Male,Right handed,Corrected to normal,,,,,,,,,,,,,,,,,,,,,,,,,,,,,,,,,,,,,,,,1602.3701800999988,1602.391328400001,1602.391328400001,1602.391328400001,1602.391328400001,1602.391328400001,1602.391328400001,1615.578358800005,['l'],1,[13.181519199977629],[None],1615.5792823999946,1615.6068906,1615.6068906,1615.6068906,1619.0606845000002,3,3.464007299975492,3,3.464007299975492,,,,,,suub174_NB,001,2026-02-04_10h07.51.704,recognitionstage,,2025.1.1,59.4432427027962,2026-02-04 10h08.42.402223 +0530,
,,,1,1,0,33,frames\Vid33_BB_T.png,frames\Vid33_L.png,['r'],1,[8.113102300005266],[None],5,2.064294100011466,,,,,0,1,1,32,1619.1077839999925,,21,Male,Right handed,Corrected to normal,,,,,,,,,,,,,,,,,,,,,,,,,,,,,,,,,,,,,,,,1619.090409700002,1619.1077839999925,1619.1077839999925,1619.1077839999925,1619.1077839999925,1619.1077839999925,1619.1077839999925,1627.228677600011,['r'],1,[8.113102300005266],[None],1627.2297322000086,1627.2422549000185,1627.2422549000185,1627.2422549000185,1629.3101058000175,5,2.064294100011466,5,2.064294100011466,,,,,,suub174_NB,001,2026-02-04_10h07.51.704,recognitionstage,,2025.1.1,59.4432427027962,2026-02-04 10h08.42.402223 +0530,
,,,2,2,0,7,frames\Vid7_EM_T.png,frames\Vid7_L.png,['r'],1,[13.884530300012557],[None],3,1.0314549999893643,,,,,0,2,2,6,1629.3762687999988,,21,Male,Right handed,Corrected to normal,,,,,,,,,,,,,,,,,,,,,,,,,,,,,,,,,,,,,,,,1629.3582704,1629.3762687999988,1629.3762687999988,1629.3762687999988,1629.3762687999988,1629.3762687999988,1629.3762687999988,1643.261199200002,['r'],1,[13.884530300012557],[None],1643.262126799993,1643.2755279999983,1643.2755279999983,1643.2755279999983,1644.3095044000074,3,1.0314549999893643,3,1.0314549999893643,,,,,,suub174_NB,001,2026-02-04_10h07.51.704,recognitionstage,,2025.1.1,59.4432427027962,2026-02-04 10h08.42.402223 +0530,
,,,3,3,0,35,frames\Vid35_EM_T.png,frames\Vid35_L.png,['r'],1,[5.4747798000171315],[None],5,1.8802366000018083,,,,,0,3,3,34,1644.3302871000196,,21,Male,Right handed,Corrected to normal,,,,,,,,,,,,,,,,,,,,,,,,,,,,,,,,,,,,,,,,1644.3196641000104,1644.3302871000196,1644.3302871000196,1644.3302871000196,1644.3302871000196,1644.3302871000196,1644.3302871000196,1649.812005100015,['r'],1,[5.4747798000171315],[None],1649.8131881000008,1649.8260243000113,1649.8260243000113,1649.8260243000113,1651.709394800011,5,1.8802366000018083,5,1.8802366000018083,,,,,,suub174_NB,001,2026-02-04_10h07.51.704,recognitionstage,,2025.1.1,59.4432427027962,2026-02-04 10h08.42.402223 +0530,
,,,4,4,0,37,frames\Vid37_BB_T.png,frames\Vid37_L.png,['l'],1,[3.2700439000036567],[None],5,1.8146451000066008,,,,,0,4,4,36,1651.742587100016,,21,Male,Right handed,Corrected to normal,,,,,,,,,,,,,,,,,,,,,,,,,,,,,,,,,,,,,,,,1651.7216466999962,1651.742587100016,1651.742587100016,1651.742587100016,1651.742587100016,1651.742587100016,1651.742587100016,1655.0278478999971,['l'],1,[3.2700439000036567],[None],1655.02876310001,1655.0422035999945,1655.0422035999945,1655.0422035999945,1656.8605390000157,5,1.8146451000066008,5,1.8146451000066008,,,,,,suub174_NB,001,2026-02-04_10h07.51.704,recognitionstage,,2025.1.1,59.4432427027962,2026-02-04 10h08.42.402223 +0530,
,,,5,5,0,16,frames\Vid16_EM_T.png,frames\Vid16_L.png,['l'],0,[19.654783500009216],[None],3,2.215981200017268,,,,,0,5,5,15,1656.9098926000006,,21,Male,Right handed,Corrected to normal,,,,,,,,,,,,,,,,,,,,,,,,,,,,,,,,,,,,,,,,1656.9001679000212,1656.9098926000006,1656.9098926000006,1656.9098926000006,1656.9098926000006,1656.9098926000006,1656.9098926000006,1676.577567100001,['l'],0,[19.654783500009216],[None],1676.5784846000024,1676.5925718999933,1676.5925718999933,1676.5925718999933,1678.8096312000125,3,2.215981200017268,3,2.215981200017268,,,,,,suub174_NB,001,2026-02-04_10h07.51.704,recognitionstage,,2025.1.1,59.4432427027962,2026-02-04 10h08.42.402223 +0530,
,,,6,6,0,28,frames\Vid28_EM_T.png,frames\Vid28_L.png,['l'],1,[2.8062039999931585],[None],5,1.2150332999881357,,,,,0,6,6,27,1678.8305422000121,,21,Male,Right handed,Corrected to normal,,,,,,,,,,,,,,,,,,,,,,,,,,,,,,,,,,,,,,,,1678.8196063000069,1678.8305422000121,1678.8305422000121,1678.8305422000121,1678.8305422000121,1678.8305422000121,1678.8305422000121,1681.644364900014,['l'],1,[2.8062039999931585],[None],1681.645446600014,1681.6591637000092,1681.6591637000092,1681.6591637000092,1682.8761625000043,5,1.2150332999881357,5,1.2150332999881357,,,,,,suub174_NB,001,2026-02-04_10h07.51.704,recognitionstage,,2025.1.1,59.4432427027962,2026-02-04 10h08.42.402223 +0530,
,,,7,7,0,17,frames\Vid17_BB_T.png,frames\Vid17_L.png,['l'],1,[4.21584790002089],[None],5,1.3635834000015166,,,,,0,7,7,16,1682.9090706999996,,21,Male,Right handed,Corrected to normal,,,,,,,,,,,,,,,,,,,,,,,,,,,,,,,,,,,,,,,,1682.9016617000161,1682.9090706999996,1682.9090706999996,1682.9090706999996,1682.9090706999996,1682.9090706999996,1682.9090706999996,1687.128802000021,['l'],1,[4.21584790002089],[None],1687.129835700005,1687.1572595000034,1687.1572595000034,1687.1572595000034,1688.5098839999991,5,1.3635834000015166,5,1.3635834000015166,,,,,,suub174_NB,001,2026-02-04_10h07.51.704,recognitionstage,,2025.1.1,59.4432427027962,2026-02-04 10h08.42.402223 +0530,
,,,8,8,0,6,frames\Vid6_BB_T.png,frames\Vid6_L.png,['r'],1,[5.995804200007115],[None],5,1.398349800001597,,,,,0,8,8,5,1688.5609236000164,,21,Male,Right handed,Corrected to normal,,,,,,,,,,,,,,,,,,,,,,,,,,,,,,,,,,,,,,,,1688.5513566000154,1688.5609236000164,1688.5609236000164,1688.5609236000164,1688.5609236000164,1688.5609236000164,1688.5609236000164,1694.5610152000154,['r'],1,[5.995804200007115],[None],1694.5618742000079,1694.5758099000086,1694.5758099000086,1694.5758099000086,1695.976603899995,5,1.398349800001597,5,1.398349800001597,,,,,,suub174_NB,001,2026-02-04_10h07.51.704,recognitionstage,,2025.1.1,59.4432427027962,2026-02-04 10h08.42.402223 +0530,
,,,9,9,0,36,frames\Vid36_BB_T.png,frames\Vid36_L.png,['l'],1,[3.656511299981503],[None],5,0.9490670000086538,,,,,0,9,9,35,1696.0121934000053,,21,Male,Right handed,Corrected to normal,,,,,,,,,,,,,,,,,,,,,,,,,,,,,,,,,,,,,,,,1695.9907254000136,1696.0121934000053,1696.0121934000053,1696.0121934000053,1696.0121934000053,1696.0121934000053,1696.0121934000053,1699.6768215000047,['l'],1,[3.656511299981503],[None],1699.6776376000198,1699.6925621000119,1699.6925621000119,1699.6925621000119,1700.642551500001,5,0.9490670000086538,5,0.9490670000086538,,,,,,suub174_NB,001,2026-02-04_10h07.51.704,recognitionstage,,2025.1.1,59.4432427027962,2026-02-04 10h08.42.402223 +0530,
,,,10,10,0,31,frames\Vid31_EM_T.png,frames\Vid31_L.png,['r'],1,[2.89570459999959],[None],5,1.1641004999983124,,,,,0,10,10,30,1700.661126299994,,21,Male,Right handed,Corrected to normal,,,,,,,,,,,,,,,,,,,,,,,,,,,,,,,,,,,,,,,,1700.6508004000061,1700.661126299994,1700.661126299994,1700.661126299994,1700.661126299994,1700.661126299994,1700.661126299994,1703.5618147000205,['r'],1,[2.89570459999959],[None],1703.5629359000013,1703.5754843000032,1703.5754843000032,1703.5754843000032,1704.7427770000068,5,1.1641004999983124,5,1.1641004999983124,,,,,,suub174_NB,001,2026-02-04_10h07.51.704,recognitionstage,,2025.1.1,59.4432427027962,2026-02-04 10h08.42.402223 +0530,
,,,11,11,0,4,frames\Vid4_EM_T.png,frames\Vid4_L.png,['l'],0,[28.61946230000467],[None],2,1.5979989000188652,,,,,0,11,11,3,1704.8095681999985,,21,Male,Right handed,Corrected to normal,,,,,,,,,,,,,,,,,,,,,,,,,,,,,,,,,,,,,,,,1704.7875511000166,1704.8095681999985,1704.8095681999985,1704.8095681999985,1704.8095681999985,1704.8095681999985,1704.8095681999985,1733.4445210999984,['l'],0,[28.61946230000467],[None],1733.4454753000173,1733.4594941000105,1733.4594941000105,1733.4594941000105,1735.0598857000005,2,1.5979989000188652,2,1.5979989000188652,,,,,,suub174_NB,001,2026-02-04_10h07.51.704,recognitionstage,,2025.1.1,59.4432427027962,2026-02-04 10h08.42.402223 +0530,
,,,12,12,0,30,frames\Vid30_EM_T.png,frames\Vid30_L.png,['r'],1,[7.164634800021304],[None],4,1.8801415000052657,,,,,0,12,12,29,1735.0804591000197,,21,Male,Right handed,Corrected to normal,,,,,,,,,,,,,,,,,,,,,,,,,,,,,,,,,,,,,,,,1735.0694954000064,1735.0804591000197,1735.0804591000197,1735.0804591000197,1735.0804591000197,1735.0804591000197,1735.0804591000197,1742.2617652000044,['r'],1,[7.164634800021304],[None],1742.26317630001,1742.2755868000095,1742.2755868000095,1742.2755868000095,1744.1599471000081,4,1.8801415000052657,4,1.8801415000052657,,,,,,suub174_NB,001,2026-02-04_10h07.51.704,recognitionstage,,2025.1.1,59.4432427027962,2026-02-04 10h08.42.402223 +0530,
,,,13,13,0,13,frames\Vid13_BB_T.png,frames\Vid13_L.png,['l'],0,[10.00362220001989],[None],2,2.263428499980364,,,,,0,13,13,12,1744.2090440000175,,21,Male,Right handed,Corrected to normal,,,,,,,,,,,,,,,,,,,,,,,,,,,,,,,,,,,,,,,,1744.1931105999975,1744.2090440000175,1744.2090440000175,1744.2090440000175,1744.2090440000175,1744.2090440000175,1744.2090440000175,1754.2291864000144,['l'],0,[10.00362220001989],[None],1754.2301218000066,1754.2425659,1754.2425659,1754.2425659,1756.5102222000132,2,2.263428499980364,2,2.263428499980364,,,,,,suub174_NB,001,2026-02-04_10h07.51.704,recognitionstage,,2025.1.1,59.4432427027962,2026-02-04 10h08.42.402223 +0530,
,,,14,14,0,27,frames\Vid27_BB_T.png,frames\Vid27_L.png,['l'],1,[4.804070200014394],[None],5,1.2312701999908313,,,,,0,14,14,26,1756.5446538999968,,21,Male,Right handed,Corrected to normal,,,,,,,,,,,,,,,,,,,,,,,,,,,,,,,,,,,,,,,,1756.5207162000006,1756.5446538999968,1756.5446538999968,1756.5446538999968,1756.5446538999968,1756.5446538999968,1756.5446538999968,1761.3614592000085,['l'],1,[4.804070200014394],[None],1761.3623682000034,1761.375518100016,1761.375518100016,1761.375518100016,1762.6099261000054,5,1.2312701999908313,5,1.2312701999908313,,,,,,suub174_NB,001,2026-02-04_10h07.51.704,recognitionstage,,2025.1.1,59.4432427027962,2026-02-04 10h08.42.402223 +0530,
,,,15,15,0,9,frames\Vid9_EM_T.png,frames\Vid9_L.png,['l'],1,[10.633583799994085],[None],2,1.7489211999927647,,,,,0,15,15,8,1762.659152200009,,21,Male,Right handed,Corrected to normal,,,,,,,,,,,,,,,,,,,,,,,,,,,,,,,,,,,,,,,,1762.6471971000137,1762.659152200009,1762.659152200009,1762.659152200009,1762.659152200009,1762.659152200009,1762.659152200009,1773.2945517000044,['l'],1,[10.633583799994085],[None],1773.2955630999932,1773.3091013999947,1773.3091013999947,1773.3091013999947,1775.0593663000036,2,1.7489211999927647,2,1.7489211999927647,,,,,,suub174_NB,001,2026-02-04_10h07.51.704,recognitionstage,,2025.1.1,59.4432427027962,2026-02-04 10h08.42.402223 +0530,
,,,16,16,0,20,frames\Vid20_EM_T.png,frames\Vid20_L.png,['r'],1,[4.324740700016264],[None],5,1.2807453999994323,,,,,0,16,16,19,1775.080092100019,,21,Male,Right handed,Corrected to normal,,,,,,,,,,,,,,,,,,,,,,,,,,,,,,,,,,,,,,,,1775.0674113999994,1775.080092100019,1775.080092100019,1775.080092100019,1775.080092100019,1775.080092100019,1775.080092100019,1779.4114329000004,['r'],1,[4.324740700016264],[None],1779.4125804000068,1779.4254624000168,1779.4254624000168,1779.4254624000168,1780.710350600013,5,1.2807453999994323,5,1.2807453999994323,,,,,,suub174_NB,001,2026-02-04_10h07.51.704,recognitionstage,,2025.1.1,59.4432427027962,2026-02-04 10h08.42.402223 +0530,
,,,17,17,0,29,frames\Vid29_BB_T.png,frames\Vid29_L.png,['l'],1,[4.734640399983618],[None],5,1.2639916999905836,,,,,0,17,17,28,1780.7421470000118,,21,Male,Right handed,Corrected to normal,,,,,,,,,,,,,,,,,,,,,,,,,,,,,,,,,,,,,,,,1780.7239535000117,1780.7421470000118,1780.7421470000118,1780.7421470000118,1780.7421470000118,1780.7421470000118,1780.7421470000118,1785.4780981999938,['l'],1,[4.734640399983618],[None],1785.4791620000033,1785.4926044000022,1785.4926044000022,1785.4926044000022,1786.7597180000157,5,1.2639916999905836,5,1.2639916999905836,,,,,,suub174_NB,001,2026-02-04_10h07.51.704,recognitionstage,,2025.1.1,59.4432427027962,2026-02-04 10h08.42.402223 +0530,
,,,18,18,0,39,frames\Vid39_BB_T.png,frames\Vid39_L.png,['l'],1,[3.787355000007665],[None],5,0.9650729999993928,,,,,0,18,18,38,1786.7774155999941,,21,Male,Right handed,Corrected to normal,,,,,,,,,,,,,,,,,,,,,,,,,,,,,,,,,,,,,,,,1786.7676799000183,1786.7774155999941,1786.7774155999941,1786.7774155999941,1786.7774155999941,1786.7774155999941,1786.7774155999941,1790.5776414000138,['l'],1,[3.787355000007665],[None],1790.578530400002,1790.5925002000004,1790.5925002000004,1790.5925002000004,1791.559738800017,5,0.9650729999993928,5,0.9650729999993928,,,,,,suub174_NB,001,2026-02-04_10h07.51.704,recognitionstage,,2025.1.1,59.4432427027962,2026-02-04 10h08.42.402223 +0530,
,,,19,19,0,8,frames\Vid8_BB_T.png,frames\Vid8_L.png,['l'],0,[5.059619000006933],[None],5,1.397748399991542,,,,,0,19,19,7,1791.6092923000106,,21,Male,Right handed,Corrected to normal,,,,,,,,,,,,,,,,,,,,,,,,,,,,,,,,,,,,,,,,1791.59978650001,1791.6092923000106,1791.6092923000106,1791.6092923000106,1791.6092923000106,1791.6092923000106,1791.6092923000106,1796.6775902000081,['l'],0,[5.059619000006933],[None],1796.6786582000204,1796.6930985999934,1796.6930985999934,1796.6930985999934,1798.0937756000203,5,1.397748399991542,5,1.397748399991542,,,,,,suub174_NB,001,2026-02-04_10h07.51.704,recognitionstage,,2025.1.1,59.4432427027962,2026-02-04 10h08.42.402223 +0530,
,,,20,20,0,11,frames\Vid11_EM_T.png,frames\Vid11_L.png,['l'],1,[3.347051599994302],[None],5,1.1472514999913983,,,,,0,20,20,10,1798.1457052000042,,21,Male,Right handed,Corrected to normal,,,,,,,,,,,,,,,,,,,,,,,,,,,,,,,,,,,,,,,,1798.1362100999977,1798.1457052000042,1798.1457052000042,1798.1457052000042,1798.1457052000042,1798.1457052000042,1798.1457052000042,1801.4950891000044,['l'],1,[3.347051599994302],[None],1801.4960193000152,1801.5087528000004,1801.5087528000004,1801.5087528000004,1802.6605352000042,5,1.1472514999913983,5,1.1472514999913983,,,,,,suub174_NB,001,2026-02-04_10h07.51.704,recognitionstage,,2025.1.1,59.4432427027962,2026-02-04 10h08.42.402223 +0530,
,,,21,21,0,5,frames\Vid5_EM_T.png,frames\Vid5_L.png,['r'],1,[3.364566400006879],[None],5,1.0303446999751031,,,,,0,21,21,4,1802.7122251999972,,21,Male,Right handed,Corrected to normal,,,,,,,,,,,,,,,,,,,,,,,,,,,,,,,,,,,,,,,,1802.6894819000154,1802.7122251999972,1802.7122251999972,1802.7122251999972,1802.7122251999972,1802.7122251999972,1802.7122251999972,1806.0786017999926,['r'],1,[3.364566400006879],[None],1806.0797893000126,1806.0924673000118,1806.0924673000118,1806.0924673000118,1807.1271052999946,5,1.0303446999751031,5,1.0303446999751031,,,,,,suub174_NB,001,2026-02-04_10h07.51.704,recognitionstage,,2025.1.1,59.4432427027962,2026-02-04 10h08.42.402223 +0530,
,,,22,22,0,40,frames\Vid40_EM_T.png,frames\Vid40_L.png,['r'],1,[3.203914799989434],[None],5,0.8806681999994908,,,,,0,22,22,39,1807.160833700007,,21,Male,Right handed,Corrected to normal,,,,,,,,,,,,,,,,,,,,,,,,,,,,,,,,,,,,,,,,1807.1356696000148,1807.160833700007,1807.160833700007,1807.160833700007,1807.160833700007,1807.160833700007,1807.160833700007,1810.3787147999974,['r'],1,[3.203914799989434],[None],1810.379811299994,1810.3920513000048,1810.3920513000048,1810.3920513000048,1811.2764692000055,5,0.8806681999994908,5,0.8806681999994908,,,,,,suub174_NB,001,2026-02-04_10h07.51.704,recognitionstage,,2025.1.1,59.4432427027962,2026-02-04 10h08.42.402223 +0530,
,,,23,23,0,25,frames\Vid25_BB_T.png,frames\Vid25_L.png,['l'],1,[4.567765299987514],[None],5,1.3810250999813434,,,,,0,23,23,24,1811.309027100011,,21,Male,Right handed,Corrected to normal,,,,,,,,,,,,,,,,,,,,,,,,,,,,,,,,,,,,,,,,1811.2879654999997,1811.309027100011,1811.309027100011,1811.309027100011,1811.309027100011,1811.309027100011,1811.309027100011,1815.8782224000024,['l'],1,[4.567765299987514],[None],1815.8792581000016,1815.892665499996,1815.892665499996,1815.892665499996,1817.2762466999993,5,1.3810250999813434,5,1.3810250999813434,,,,,,suub174_NB,001,2026-02-04_10h07.51.704,recognitionstage,,2025.1.1,59.4432427027962,2026-02-04 10h08.42.402223 +0530,
,,,24,24,0,1,frames\Vid1_EM_T.png,frames\Vid1_L.png,['r'],1,[9.574115900002653],[None],5,2.0965022999735083,,,,,0,24,24,0,1817.3426393000118,,21,Male,Right handed,Corrected to normal,,,,,,,,,,,,,,,,,,,,,,,,,,,,,,,,,,,,,,,,1817.3273989000008,1817.3426393000118,1817.3426393000118,1817.3426393000118,1817.3426393000118,1817.3426393000118,1817.3426393000118,1826.9288322000066,['r'],1,[9.574115900002653],[None],1826.9301725999976,1826.9572778000147,1826.9572778000147,1826.9572778000147,1829.0438964000205,5,2.0965022999735083,5,2.0965022999735083,,,,,,suub174_NB,001,2026-02-04_10h07.51.704,recognitionstage,,2025.1.1,59.4432427027962,2026-02-04 10h08.42.402223 +0530,
,,,25,25,0,24,frames\Vid24_BB_T.png,frames\Vid24_L.png,['l'],1,[5.669961200008402],[None],5,1.1806284999765921,,,,,0,25,25,23,1829.0786888000148,,21,Male,Right handed,Corrected to normal,,,,,,,,,,,,,,,,,,,,,,,,,,,,,,,,,,,,,,,,1829.0593622000015,1829.0786888000148,1829.0786888000148,1829.0786888000148,1829.0786888000148,1829.0786888000148,1829.0786888000148,1834.7611550000147,['l'],1,[5.669961200008402],[None],1834.762535899994,1834.7754412000068,1834.7754412000068,1834.7754412000068,1835.9602345000021,5,1.1806284999765921,5,1.1806284999765921,,,,,,suub174_NB,001,2026-02-04_10h07.51.704,recognitionstage,,2025.1.1,59.4432427027962,2026-02-04 10h08.42.402223 +0530,
,,,26,26,0,10,frames\Vid10_BB_T.png,frames\Vid10_L.png,['r'],1,[4.8260711999901105],[None],5,1.2653171999845654,,,,,0,26,26,9,1836.0267852999968,,21,Male,Right handed,Corrected to normal,,,,,,,,,,,,,,,,,,,,,,,,,,,,,,,,,,,,,,,,1836.003632500011,1836.0267852999968,1836.0267852999968,1836.0267852999968,1836.0267852999968,1836.0267852999968,1836.0267852999968,1840.8610343000037,['r'],1,[4.8260711999901105],[None],1840.861998200009,1840.8762407000177,1840.8762407000177,1840.8762407000177,1842.1429878000054,5,1.2653171999845654,5,1.2653171999845654,,,,,,suub174_NB,001,2026-02-04_10h07.51.704,recognitionstage,,2025.1.1,59.4432427027962,2026-02-04 10h08.42.402223 +0530,
,,,27,27,0,12,frames\Vid12_EM_T.png,frames\Vid12_L.png,['l'],1,[3.1770569999935105],[None],5,1.413508700003149,,,,,0,27,27,11,1842.1959770999965,,21,Male,Right handed,Corrected to normal,,,,,,,,,,,,,,,,,,,,,,,,,,,,,,,,,,,,,,,,1842.186431900016,1842.1959770999965,1842.1959770999965,1842.1959770999965,1842.1959770999965,1842.1959770999965,1842.1959770999965,1845.378773000004,['l'],1,[3.1770569999935105],[None],1845.3799935000134,1845.3920686000201,1845.3920686000201,1845.3920686000201,1846.8099643000169,5,1.413508700003149,5,1.413508700003149,,,,,,suub174_NB,001,2026-02-04_10h07.51.704,recognitionstage,,2025.1.1,59.4432427027962,2026-02-04 10h08.42.402223 +0530,
,,,28,28,0,2,frames\Vid2_BB_T.png,frames\Vid2_L.png,['r'],1,[5.934076800011098],[None],5,1.3318071000103373,,,,,0,28,28,1,1846.8625991000154,,21,Male,Right handed,Corrected to normal,,,,,,,,,,,,,,,,,,,,,,,,,,,,,,,,,,,,,,,,1846.8502434999973,1846.8625991000154,1846.8625991000154,1846.8625991000154,1846.8625991000154,1846.8625991000154,1846.8625991000154,1852.8118981000152,['r'],1,[5.934076800011098],[None],1852.8129299000138,1852.825660100003,1852.825660100003,1852.825660100003,1854.159498699999,5,1.3318071000103373,5,1.3318071000103373,,,,,,suub174_NB,001,2026-02-04_10h07.51.704,recognitionstage,,2025.1.1,59.4432427027962,2026-02-04 10h08.42.402223 +0530,
,,,29,29,0,34,frames\Vid34_BB_T.png,frames\Vid34_L.png,['r'],1,[8.424988800019491],[None],4,1.9652452000009362,,,,,0,29,29,33,1854.195787500008,,21,Male,Right handed,Corrected to normal,,,,,,,,,,,,,,,,,,,,,,,,,,,,,,,,,,,,,,,,1854.1722089000104,1854.195787500008,1854.195787500008,1854.195787500008,1854.195787500008,1854.195787500008,1854.195787500008,1862.6277301000082,['r'],1,[8.424988800019491],[None],1862.6288010000135,1862.64285080001,1862.64285080001,1862.64285080001,1864.6105941999995,4,1.9652452000009362,4,1.9652452000009362,,,,,,suub174_NB,001,2026-02-04_10h07.51.704,recognitionstage,,2025.1.1,59.4432427027962,2026-02-04 10h08.42.402223 +0530,
,,,30,30,0,21,frames\Vid21_BB_T.png,frames\Vid21_L.png,['r'],1,[4.922500800021226],[None],5,1.748908500012476,,,,,0,30,30,20,1864.6422583000094,,21,Male,Right handed,Corrected to normal,,,,,,,,,,,,,,,,,,,,,,,,,,,,,,,,,,,,,,,,1864.6255306999956,1864.6422583000094,1864.6422583000094,1864.6422583000094,1864.6422583000094,1864.6422583000094,1864.6422583000094,1869.5781799000106,['r'],1,[4.922500800021226],[None],1869.5791794999968,1869.5936539999966,1869.5936539999966,1869.5936539999966,1871.3431587000086,5,1.748908500012476,5,1.748908500012476,,,,,,suub174_NB,001,2026-02-04_10h07.51.704,recognitionstage,,2025.1.1,59.4432427027962,2026-02-04 10h08.42.402223 +0530,
,,,31,31,0,22,frames\Vid22_EM_T.png,frames\Vid22_L.png,['r'],1,[3.3726587000128347],[None],5,0.9809567999909632,,,,,0,31,31,21,1871.3760578999936,,21,Male,Right handed,Corrected to normal,,,,,,,,,,,,,,,,,,,,,,,,,,,,,,,,,,,,,,,,1871.357440199994,1871.3760578999936,1871.3760578999936,1871.3760578999936,1871.3760578999936,1871.3760578999936,1871.3760578999936,1874.7614578999928,['r'],1,[3.3726587000128347],[None],1874.7624325999932,1874.775568800018,1874.775568800018,1874.775568800018,1875.7598065000202,5,0.9809567999909632,5,0.9809567999909632,,,,,,suub174_NB,001,2026-02-04_10h07.51.704,recognitionstage,,2025.1.1,59.4432427027962,2026-02-04 10h08.42.402223 +0530,
,,,32,32,0,26,frames\Vid26_EM_T.png,frames\Vid26_L.png,['r'],1,[3.3880803999782074],[None],5,1.0317956000217237,,,,,0,32,32,25,1875.7925310000137,,21,Male,Right handed,Corrected to normal,,,,,,,,,,,,,,,,,,,,,,,,,,,,,,,,,,,,,,,,1875.773870200006,1875.7925310000137,1875.7925310000137,1875.7925310000137,1875.7925310000137,1875.7925310000137,1875.7925310000137,1879.1937457000022,['r'],1,[3.3880803999782074],[None],1879.1945883000153,1879.2092301000084,1879.2092301000084,1879.2092301000084,1880.2436887999938,5,1.0317956000217237,5,1.0317956000217237,,,,,,suub174_NB,001,2026-02-04_10h07.51.704,recognitionstage,,2025.1.1,59.4432427027962,2026-02-04 10h08.42.402223 +0530,
,,,33,33,0,23,frames\Vid23_EM_T.png,frames\Vid23_L.png,['r'],1,[5.720920299994759],[None],3,2.3651645999925677,,,,,0,33,33,22,1880.2757074999972,,21,Male,Right handed,Corrected to normal,,,,,,,,,,,,,,,,,,,,,,,,,,,,,,,,,,,,,,,,1880.260781000019,1880.2757074999972,1880.2757074999972,1880.2757074999972,1880.2757074999972,1880.2757074999972,1880.2757074999972,1886.0104184999946,['r'],1,[5.720920299994759],[None],1886.0113076000125,1886.0259303000057,1886.0259303000057,1886.0259303000057,1888.3933572999958,3,2.3651645999925677,3,2.3651645999925677,,,,,,suub174_NB,001,2026-02-04_10h07.51.704,recognitionstage,,2025.1.1,59.4432427027962,2026-02-04 10h08.42.402223 +0530,
,,,34,34,0,3,frames\Vid3_BB_T.png,frames\Vid3_L.png,['l'],1,[4.090198899997631],[None],5,1.248146399972029,,,,,0,34,34,2,1888.4425920000067,,21,Male,Right handed,Corrected to normal,,,,,,,,,,,,,,,,,,,,,,,,,,,,,,,,,,,,,,,,1888.4320097000164,1888.4425920000067,1888.4425920000067,1888.4425920000067,1888.4425920000067,1888.4425920000067,1888.4425920000067,1892.5444786000007,['l'],1,[4.090198899997631],[None],1892.5453528999933,1892.559235099994,1892.559235099994,1892.559235099994,1893.8091869000054,5,1.248146399972029,5,1.248146399972029,,,,,,suub174_NB,001,2026-02-04_10h07.51.704,recognitionstage,,2025.1.1,59.4432427027962,2026-02-04 10h08.42.402223 +0530,
,,,35,35,0,19,frames\Vid19_BB_T.png,frames\Vid19_L.png,['l'],0,[7.598644899990177],[None],2,1.3649901000026148,,,,,0,35,35,18,1893.8302403000125,,21,Male,Right handed,Corrected to normal,,,,,,,,,,,,,,,,,,,,,,,,,,,,,,,,,,,,,,,,1893.819635699998,1893.8302403000125,1893.8302403000125,1893.8302403000125,1893.8302403000125,1893.8302403000125,1893.8302403000125,1901.4440203999984,['l'],0,[7.598644899990177],[None],1901.4449110999994,1901.4591311000113,1901.4591311000113,1901.4591311000113,1902.826658200007,2,1.3649901000026148,2,1.3649901000026148,,,,,,suub174_NB,001,2026-02-04_10h07.51.704,recognitionstage,,2025.1.1,59.4432427027962,2026-02-04 10h08.42.402223 +0530,
,,,36,36,0,18,frames\Vid18_EM_T.png,frames\Vid18_L.png,['r'],1,[5.185704200004693],[None],5,1.1489419999998063,,,,,0,36,36,17,1902.8592669000209,,21,Male,Right handed,Corrected to normal,,,,,,,,,,,,,,,,,,,,,,,,,,,,,,,,,,,,,,,,1902.8375587000046,1902.8592669000209,1902.8592669000209,1902.8592669000209,1902.8592669000209,1902.8592669000209,1902.8592669000209,1908.0605941000103,['r'],1,[5.185704200004693],[None],1908.061535500019,1908.0760033999977,1908.0760033999977,1908.0760033999977,1909.2260754000163,5,1.1489419999998063,5,1.1489419999998063,,,,,,suub174_NB,001,2026-02-04_10h07.51.704,recognitionstage,,2025.1.1,59.4432427027962,2026-02-04 10h08.42.402223 +0530,
,,,37,37,0,38,frames\Vid38_EM_T.png,frames\Vid38_L.png,['r'],1,[7.78414000000339],[None],3,1.1817666999995708,,,,,0,37,37,37,1909.2445638000208,,21,Male,Right handed,Corrected to normal,,,,,,,,,,,,,,,,,,,,,,,,,,,,,,,,,,,,,,,,1909.2363683000149,1909.2445638000208,1909.2445638000208,1909.2445638000208,1909.2445638000208,1909.2445638000208,1909.2445638000208,1917.044229000021,['r'],1,[7.78414000000339],[None],1917.0450338000082,1917.0587409000145,1917.0587409000145,1917.0587409000145,1918.2437568000169,3,1.1817666999995708,3,1.1817666999995708,,,,,,suub174_NB,001,2026-02-04_10h07.51.704,recognitionstage,,2025.1.1,59.4432427027962,2026-02-04 10h08.42.402223 +0530,
,,,38,38,0,14,frames\Vid14_BB_T.png,frames\Vid14_L.png,['r'],1,[2.639286900026491],[None],5,1.180501099996036,,,,,0,38,38,13,1918.309460599994,,21,Male,Right handed,Corrected to normal,,,,,,,,,,,,,,,,,,,,,,,,,,,,,,,,,,,,,,,,1918.292332300014,1918.309460599994,1918.309460599994,1918.309460599994,1918.309460599994,1918.309460599994,1918.309460599994,1920.9615769000084,['r'],1,[2.639286900026491],[None],1920.9626145999937,1920.9753878000192,1920.9753878000192,1920.9753878000192,1922.1606419000018,5,1.180501099996036,5,1.180501099996036,,,,,,suub174_NB,001,2026-02-04_10h07.51.704,recognitionstage,,2025.1.1,59.4432427027962,2026-02-04 10h08.42.402223 +0530,
,,,39,39,0,32,frames\Vid32_EM_T.png,frames\Vid32_L.png,['r'],1,[4.321952900005272],[None],4,1.4150016999919899,,,,,0,39,39,31,1922.1947403000086,,21,Male,Right handed,Corrected to normal,,,,,,,,,,,,,,,,,,,,,,,,,,,,,,,,,,,,,,,,1922.1751851000008,1922.1947403000086,1922.1947403000086,1922.1947403000086,1922.1947403000086,1922.1947403000086,1922.1947403000086,1926.5273551999999,['r'],1,[4.321952900005272],[None],1926.5282997000031,1926.5424218999979,1926.5424218999979,1926.5424218999979,1927.9591628000198,4,1.4150016999919899,4,1.4150016999919899,,,,,,suub174_NB,001,2026-02-04_10h07.51.704,recognitionstage,,2025.1.1,59.4432427027962,2026-02-04 10h08.42.402223 +0530,
,,,,,,,,,,,,,,,,,,,,,,,,,21,Male,Right handed,Corrected to normal,,,,,,,,,,,,,,,,,,,,,,,,,,,,,,,,,,,,,,,,,,,,,,,,,,,,,,,,,,,,,1927.9592433999933,1927.9763190000085,1927.9763190000085,1947.9602365000173,None,suub174_NB,001,2026-02-04_10h07.51.704,recognitionstage,,2025.1.1,59.4432427027962,2026-02-04 10h08.42.402223 +0530,
