path,duration,is_repeat,thisN,thisTrialN,thisRepN,movie_id,target_img,lure_img,resp.keys,resp.corr,resp.rt,resp.duration,conf_radio.response,conf_radio.rt,movie.thisRepN,movie.thisTrialN,movie.thisN,movie.thisIndex,recogloop.thisRepN,recogloop.thisTrialN,recogloop.thisN,recogloop.thisIndex,thisRow.t,notes,age,gender,handedness,vision,caffeine_2h,alcohol_smoke_12h,demographics.started,demographics.stopped,Instructions.started,text1.started,key_resp.started,Instructions.stopped,key_resp.keys,key_resp.rt,key_resp.duration,instruction_2.started,text2.started,key_resp_2.started,instruction_2.stopped,key_resp_2.keys,key_resp_2.rt,key_resp_2.duration,Videos.started,movie_2.started,vigilance_resp.started,movie_2.stopped,Videos.stopped,movie.vigilance_resp.keys,vigilance_pressed,vigilance_correct,ISI.started,text.started,ISI.stopped,text.stopped,movie.vigilance_resp.rt,movie.vigilance_resp.duration,recognition.started,text_4.started,key_resp_3.started,recognition.stopped,key_resp_3.keys,key_resp_3.rt,key_resp_3.duration,recognition_task.started,leftimage.started,rightimage.started,resp.started,frames_question.started,right_label.started,left_label.started,recognition_task.stopped,recogloop.resp.keys,recogloop.resp.corr,recogloop.resp.rt,recogloop.resp.duration,confidence.started,conf_text.started,conf_radio.started,conf_label.started,confidence.stopped,recogloop.conf_radio.response,recogloop.conf_radio.rt,confidence,confidence_rt,thank_you.started,text_6.started,key_resp_4.started,thank_you.stopped,key_resp_4.keys,key_resp_4.rt,key_resp_4.duration,participant,session,date,expName,expVersion,psychopyVersion,frameRate,expStart,...105
,,,,,,,,,,,,,,,,,,,,,,,,,21,Male,Left Handed,Normal,Caffeine consumed in last 2 hours?,Alcohol or smoking in last 12 hours?,0.004765800025779754,0.007242200023029,,,,,,,,,,,,,,,,,,,,,,,,,,,,,,,,,,,,,,,,,,,,,,,,,,,,,,,,,,,,,,,,sub102_AB,001,2026-01-31_09h10.23.620,recognitionstage,,2025.1.1,60.16720466013131,2026-01-31 09h11.04.265812 +0530,
,,,,,,,,,,,,,,,,,,,,,,,,,21,Male,Left Handed,Normal,,,,,0.007262700004503131,0.023663100029807538,0.023663100029807538,9.025956500030588,space,9.001536299998406,None,,,,,,,,,,,,,,,,,,,,,,,,,,,,,,,,,,,,,,,,,,,,,,,,,,,,,,,,,sub102_AB,001,2026-01-31_09h10.23.620,recognitionstage,,2025.1.1,60.16720466013131,2026-01-31 09h11.04.265812 +0530,
,,,,,,,,,,,,,,,,,,,,,,,,,21,Male,Left Handed,Normal,,,,,,,,,,,,9.026011900044978,9.041295200004242,9.041295200004242,15.793674700020347,space,6.744183900009375,None,,,,,,,,,,,,,,,,,,,,,,,,,,,,,,,,,,,,,,,,,,,,,,,,,,sub102_AB,001,2026-01-31_09h10.23.620,recognitionstage,,2025.1.1,60.16720466013131,2026-01-31 09h11.04.265812 +0530,
abrupt_videos\abrupt_35.mp4,42,0,44,44,0,,,,,,,,,,0,44,44,38,,,,,1501.3067319000256,,21,Male,Left Handed,Normal,,,,,,,,,,,,,,,,,,,1501.251300600008,1501.3067319000256,1501.3067319000256,1543.7397709000506,1543.5894375000498,None,0,1,1543.7248592000105,1543.7397709000506,1546.2250914000324,1487.3567622000119,10.62871689995518,None,1546.2251667000237,1546.2412396,1546.2412396,1563.0422145000193,space,16.80009690002771,None,,,,,,,,,,,,,,,,,,,,,,,,,,,,,sub102_AB,001,2026-01-31_09h10.23.620,recognitionstage,,2025.1.1,60.16720466013131,2026-01-31 09h11.04.265812 +0530,
,,,0,0,0,3,frames\Vid3_BB_T.png,frames\Vid3_L.png,['l'],1,[4.014514899987262],[None],5,8.414525000029244,,,,,0,0,0,2,1563.1229572000448,,21,Male,Left Handed,Normal,,,,,,,,,,,,,,,,,,,,,,,,,,,,,,,,,,,,,,,,1563.1137802000158,1563.1229572000448,1563.1229572000448,1563.1229572000448,1563.1229572000448,1563.1229572000448,1563.1229572000448,1567.142729300016,['l'],1,[4.014514899987262],[None],1567.143579900032,1567.1569030000246,1567.1569030000246,1567.1569030000246,1575.574990400055,5,8.414525000029244,5,8.414525000029244,,,,,,,,sub102_AB,001,2026-01-31_09h10.23.620,recognitionstage,,2025.1.1,60.16720466013131,2026-01-31 09h11.04.265812 +0530,
,,,1,1,0,39,frames\Vid39_BB_T.png,frames\Vid39_L.png,['r'],1,[10.970983300008811],[None],3,3.1143733999924734,,,,,0,1,1,38,1575.6224520000396,,21,Male,Left Handed,Normal,,,,,,,,,,,,,,,,,,,,,,,,,,,,,,,,,,,,,,,,1575.6144664000021,1575.6224520000396,1575.6224520000396,1575.6224520000396,1575.6224520000396,1575.6224520000396,1575.6224520000396,1586.6094402000308,['r'],1,[10.970983300008811],[None],1586.610268700053,1586.623491400038,1586.623491400038,1586.623491400038,1589.7414623000077,3,3.1143733999924734,3,3.1143733999924734,,,,,,,,sub102_AB,001,2026-01-31_09h10.23.620,recognitionstage,,2025.1.1,60.16720466013131,2026-01-31 09h11.04.265812 +0530,
,,,2,2,0,6,frames\Vid6_BB_T.png,frames\Vid6_L.png,['r'],1,[5.729765800002497],[None],5,2.9657952000270598,,,,,0,2,2,5,1589.8076980000478,,21,Male,Left Handed,Normal,,,,,,,,,,,,,,,,,,,,,,,,,,,,,,,,,,,,,,,,1589.7982096000342,1589.8076980000478,1589.8076980000478,1589.8076980000478,1589.8076980000478,1589.8076980000478,1589.8076980000478,1595.5416425000294,['r'],1,[5.729765800002497],[None],1595.542429300025,1595.5572473000502,1595.5572473000502,1595.5572473000502,1598.5252456000308,5,2.9657952000270598,5,2.9657952000270598,,,,,,,,sub102_AB,001,2026-01-31_09h10.23.620,recognitionstage,,2025.1.1,60.16720466013131,2026-01-31 09h11.04.265812 +0530,
,,,3,3,0,25,frames\Vid25_BB_T.png,frames\Vid25_L.png,['l'],1,[4.896523100032937],[None],3,2.9460660999757238,,,,,0,3,3,24,1598.5771407000138,,21,Male,Left Handed,Normal,,,,,,,,,,,,,,,,,,,,,,,,,,,,,,,,,,,,,,,,1598.553887200018,1598.5771407000138,1598.5771407000138,1598.5771407000138,1598.5771407000138,1598.5771407000138,1598.5771407000138,1603.4771907000104,['l'],1,[4.896523100032937],[None],1603.4789611000451,1603.5059510000283,1603.5059510000283,1603.5059510000283,1606.4415543000214,3,2.9460660999757238,3,2.9460660999757238,,,,,,,,sub102_AB,001,2026-01-31_09h10.23.620,recognitionstage,,2025.1.1,60.16720466013131,2026-01-31 09h11.04.265812 +0530,
,,,4,4,0,9,frames\Vid9_EM_T.png,frames\Vid9_L.png,['l'],0,[5.717902800010052],[None],2,2.3805663000093773,,,,,0,4,4,8,1606.5076986000058,,21,Male,Left Handed,Normal,,,,,,,,,,,,,,,,,,,,,,,,,,,,,,,,,,,,,,,,1606.4927130000433,1606.5076986000058,1606.5076986000058,1606.5076986000058,1606.5076986000058,1606.5076986000058,1606.5076986000058,1612.243124700035,['l'],0,[5.717902800010052],[None],1612.2444857000373,1612.2573136000428,1612.2573136000428,1612.2573136000428,1614.6415221000207,2,2.3805663000093773,2,2.3805663000093773,,,,,,,,sub102_AB,001,2026-01-31_09h10.23.620,recognitionstage,,2025.1.1,60.16720466013131,2026-01-31 09h11.04.265812 +0530,
,,,5,5,0,20,frames\Vid20_EM_T.png,frames\Vid20_L.png,['l'],1,[2.845131499983836],[None],4,1.7473720000125468,,,,,0,5,5,19,1614.6763513000333,,21,Male,Left Handed,Normal,,,,,,,,,,,,,,,,,,,,,,,,,,,,,,,,,,,,,,,,1614.6619858000195,1614.6763513000333,1614.6763513000333,1614.6763513000333,1614.6763513000333,1614.6763513000333,1614.6763513000333,1617.5261423000484,['l'],1,[2.845131499983836],[None],1617.5270032000262,1617.5410397000378,1617.5410397000378,1617.5410397000378,1619.291848700028,4,1.7473720000125468,4,1.7473720000125468,,,,,,,,sub102_AB,001,2026-01-31_09h10.23.620,recognitionstage,,2025.1.1,60.16720466013131,2026-01-31 09h11.04.265812 +0530,
,,,6,6,0,24,frames\Vid24_BB_T.png,frames\Vid24_L.png,['l'],1,[5.5171286999830045],[None],3,2.513924099970609,,,,,0,6,6,23,1619.3402004000382,,21,Male,Left Handed,Normal,,,,,,,,,,,,,,,,,,,,,,,,,,,,,,,,,,,,,,,,1619.3188147000037,1619.3402004000382,1619.3402004000382,1619.3402004000382,1619.3402004000382,1619.3402004000382,1619.3402004000382,1624.8598755000276,['l'],1,[5.5171286999830045],[None],1624.8607520000078,1624.8734409000026,1624.8734409000026,1624.8734409000026,1627.3911957000382,3,2.513924099970609,3,2.513924099970609,,,,,,,,sub102_AB,001,2026-01-31_09h10.23.620,recognitionstage,,2025.1.1,60.16720466013131,2026-01-31 09h11.04.265812 +0530,
,,,7,7,0,16,frames\Vid16_EM_T.png,frames\Vid16_L.png,['l'],1,[6.007749399985187],[None],3,1.6979517000145279,,,,,0,7,7,15,1627.4576704000356,,21,Male,Left Handed,Normal,,,,,,,,,,,,,,,,,,,,,,,,,,,,,,,,,,,,,,,,1627.4417956000543,1627.4576704000356,1627.4576704000356,1627.4576704000356,1627.4576704000356,1627.4576704000356,1627.4576704000356,1633.476088800002,['l'],1,[6.007749399985187],[None],1633.4771351000527,1633.4902670000447,1633.4902670000447,1633.4902670000447,1635.1907456000336,3,1.6979517000145279,3,1.6979517000145279,,,,,,,,sub102_AB,001,2026-01-31_09h10.23.620,recognitionstage,,2025.1.1,60.16720466013131,2026-01-31 09h11.04.265812 +0530,
,,,8,8,0,32,frames\Vid32_EM_T.png,frames\Vid32_L.png,['r'],1,[4.166906400001608],[None],3,1.431341599964071,,,,,0,8,8,31,1635.226487900014,,21,Male,Left Handed,Normal,,,,,,,,,,,,,,,,,,,,,,,,,,,,,,,,,,,,,,,,1635.2150918000261,1635.226487900014,1635.226487900014,1635.226487900014,1635.226487900014,1635.226487900014,1635.226487900014,1639.4100101000513,['r'],1,[4.166906400001608],[None],1639.4109687000164,1639.423615000036,1639.423615000036,1639.423615000036,1640.8575401999988,3,1.431341599964071,3,1.431341599964071,,,,,,,,sub102_AB,001,2026-01-31_09h10.23.620,recognitionstage,,2025.1.1,60.16720466013131,2026-01-31 09h11.04.265812 +0530,
,,,9,9,0,33,frames\Vid33_BB_T.png,frames\Vid33_L.png,['l'],1,[2.7269238000153564],[None],4,2.215108699980192,,,,,0,9,9,32,1640.890629200032,,21,Male,Left Handed,Normal,,,,,,,,,,,,,,,,,,,,,,,,,,,,,,,,,,,,,,,,1640.8810131000355,1640.890629200032,1640.890629200032,1640.890629200032,1640.890629200032,1640.890629200032,1640.890629200032,1643.6257877000025,['l'],1,[2.7269238000153564],[None],1643.6266900000046,1643.640639600053,1643.640639600053,1643.640639600053,1645.857731600001,4,2.215108699980192,4,2.215108699980192,,,,,,,,sub102_AB,001,2026-01-31_09h10.23.620,recognitionstage,,2025.1.1,60.16720466013131,2026-01-31 09h11.04.265812 +0530,
,,,10,10,0,12,frames\Vid12_EM_T.png,frames\Vid12_L.png,['r'],1,[4.053058799996506],[None],5,1.7145807999768294,,,,,0,10,10,11,1645.9242930000182,,21,Male,Left Handed,Normal,,,,,,,,,,,,,,,,,,,,,,,,,,,,,,,,,,,,,,,,1645.9141969000339,1645.9242930000182,1645.9242930000182,1645.9242930000182,1645.9242930000182,1645.9242930000182,1645.9242930000182,1649.9921922000358,['r'],1,[4.053058799996506],[None],1649.9932555000414,1650.0072700000019,1650.0072700000019,1650.0072700000019,1651.7246511000558,5,1.7145807999768294,5,1.7145807999768294,,,,,,,,sub102_AB,001,2026-01-31_09h10.23.620,recognitionstage,,2025.1.1,60.16720466013131,2026-01-31 09h11.04.265812 +0530,
,,,11,11,0,18,frames\Vid18_EM_T.png,frames\Vid18_L.png,['l'],1,[3.0254891999647953],[None],5,1.7815571999526583,,,,,0,11,11,17,1651.7601132000564,,21,Male,Left Handed,Normal,,,,,,,,,,,,,,,,,,,,,,,,,,,,,,,,,,,,,,,,1651.7484842000413,1651.7601132000564,1651.7601132000564,1651.7601132000564,1651.7601132000564,1651.7601132000564,1651.7601132000564,1654.7925909000332,['l'],1,[3.0254891999647953],[None],1654.7938117000158,1654.8079600000056,1654.8079600000056,1654.8079600000056,1656.5908953000326,5,1.7815571999526583,5,1.7815571999526583,,,,,,,,sub102_AB,001,2026-01-31_09h10.23.620,recognitionstage,,2025.1.1,60.16720466013131,2026-01-31 09h11.04.265812 +0530,
,,,12,12,0,17,frames\Vid17_BB_T.png,frames\Vid17_L.png,['l'],1,[2.608740099996794],[None],5,1.0647984000388533,,,,,0,12,12,16,1656.6406681000371,,21,Male,Left Handed,Normal,,,,,,,,,,,,,,,,,,,,,,,,,,,,,,,,,,,,,,,,1656.626368600002,1656.6406681000371,1656.6406681000371,1656.6406681000371,1656.6406681000371,1656.6406681000371,1656.6406681000371,1659.259312900016,['l'],1,[2.608740099996794],[None],1659.2604050000082,1659.2735102000297,1659.2735102000297,1659.2735102000297,1660.3413028000505,5,1.0647984000388533,5,1.0647984000388533,,,,,,,,sub102_AB,001,2026-01-31_09h10.23.620,recognitionstage,,2025.1.1,60.16720466013131,2026-01-31 09h11.04.265812 +0530,
,,,13,13,0,35,frames\Vid35_EM_T.png,frames\Vid35_L.png,['l'],1,[2.2668440000270493],[None],5,1.2800593000138178,,,,,0,13,13,34,1660.3746884000138,,21,Male,Left Handed,Normal,,,,,,,,,,,,,,,,,,,,,,,,,,,,,,,,,,,,,,,,1660.366752700007,1660.3746884000138,1660.3746884000138,1660.3746884000138,1660.3746884000138,1660.3746884000138,1660.3746884000138,1662.6435472000157,['l'],1,[2.2668440000270493],[None],1662.6447858000174,1662.657173500047,1662.657173500047,1662.657173500047,1663.9407608000329,5,1.2800593000138178,5,1.2800593000138178,,,,,,,,sub102_AB,001,2026-01-31_09h10.23.620,recognitionstage,,2025.1.1,60.16720466013131,2026-01-31 09h11.04.265812 +0530,
,,,14,14,0,8,frames\Vid8_BB_T.png,frames\Vid8_L.png,['r'],1,[4.33783420000691],[None],5,1.4306269999942742,,,,,0,14,14,7,1664.0076607000083,,21,Male,Left Handed,Normal,,,,,,,,,,,,,,,,,,,,,,,,,,,,,,,,,,,,,,,,1663.9903088000137,1664.0076607000083,1664.0076607000083,1664.0076607000083,1664.0076607000083,1664.0076607000083,1664.0076607000083,1668.3599033000064,['r'],1,[4.33783420000691],[None],1668.3610328000505,1668.3736019000062,1668.3736019000062,1668.3736019000062,1669.80720510002,5,1.4306269999942742,5,1.4306269999942742,,,,,,,,sub102_AB,001,2026-01-31_09h10.23.620,recognitionstage,,2025.1.1,60.16720466013131,2026-01-31 09h11.04.265812 +0530,
,,,15,15,0,29,frames\Vid29_BB_T.png,frames\Vid29_L.png,['l'],1,[8.390167100005783],[None],1,2.9986942000105046,,,,,0,15,15,28,1669.843303700036,,21,Male,Left Handed,Normal,,,,,,,,,,,,,,,,,,,,,,,,,,,,,,,,,,,,,,,,1669.831878900004,1669.843303700036,1669.843303700036,1669.843303700036,1669.843303700036,1669.843303700036,1669.843303700036,1678.2421411000541,['l'],1,[8.390167100005783],[None],1678.2430904000066,1678.257209000003,1678.257209000003,1678.257209000003,1681.2579096000409,1,2.9986942000105046,1,2.9986942000105046,,,,,,,,sub102_AB,001,2026-01-31_09h10.23.620,recognitionstage,,2025.1.1,60.16720466013131,2026-01-31 09h11.04.265812 +0530,
,,,16,16,0,38,frames\Vid38_EM_T.png,frames\Vid38_L.png,['r'],1,[8.031044100003783],[None],1,3.0988280000165105,,,,,0,16,16,37,1681.2904190000263,,21,Male,Left Handed,Normal,,,,,,,,,,,,,,,,,,,,,,,,,,,,,,,,,,,,,,,,1681.281897100038,1681.2904190000263,1681.2904190000263,1681.2904190000263,1681.2904190000263,1681.2904190000263,1681.2904190000263,1689.3249992000055,['r'],1,[8.031044100003783],[None],1689.3257580000209,1689.3407270000316,1689.3407270000316,1689.3407270000316,1692.4414026000304,1,3.0988280000165105,1,3.0988280000165105,,,,,,,,sub102_AB,001,2026-01-31_09h10.23.620,recognitionstage,,2025.1.1,60.16720466013131,2026-01-31 09h11.04.265812 +0530,
,,,17,17,0,19,frames\Vid19_BB_T.png,frames\Vid19_L.png,['l'],0,[3.2156246999511495],[None],2,2.0984508999972604,,,,,0,17,17,18,1692.4737442000187,,21,Male,Left Handed,Normal,,,,,,,,,,,,,,,,,,,,,,,,,,,,,,,,,,,,,,,,1692.465568100044,1692.4737442000187,1692.4737442000187,1692.4737442000187,1692.4737442000187,1692.4737442000187,1692.4737442000187,1695.6925389000098,['l'],0,[3.2156246999511495],[None],1695.6933734000195,1695.7070017000078,1695.7070017000078,1695.7070017000078,1697.8073586000246,2,2.0984508999972604,2,2.0984508999972604,,,,,,,,sub102_AB,001,2026-01-31_09h10.23.620,recognitionstage,,2025.1.1,60.16720466013131,2026-01-31 09h11.04.265812 +0530,
,,,18,18,0,31,frames\Vid31_EM_T.png,frames\Vid31_L.png,['l'],1,[2.2890263000153936],[None],4,1.5967825999832712,,,,,0,18,18,30,1697.8403939000564,,21,Male,Left Handed,Normal,,,,,,,,,,,,,,,,,,,,,,,,,,,,,,,,,,,,,,,,1697.8280183000024,1697.8403939000564,1697.8403939000564,1697.8403939000564,1697.8403939000564,1697.8403939000564,1697.8403939000564,1700.143147499999,['l'],1,[2.2890263000153936],[None],1700.1443995000445,1700.1719817000558,1700.1719817000558,1700.1719817000558,1701.7578887000564,4,1.5967825999832712,4,1.5967825999832712,,,,,,,,sub102_AB,001,2026-01-31_09h10.23.620,recognitionstage,,2025.1.1,60.16720466013131,2026-01-31 09h11.04.265812 +0530,
,,,19,19,0,7,frames\Vid7_EM_T.png,frames\Vid7_L.png,['r'],1,[8.473399100010283],[None],2,2.3978020999929868,,,,,0,19,19,6,1701.8240310000256,,21,Male,Left Handed,Normal,,,,,,,,,,,,,,,,,,,,,,,,,,,,,,,,,,,,,,,,1701.815413000004,1701.8240310000256,1701.8240310000256,1701.8240310000256,1701.8240310000256,1701.8240310000256,1701.8240310000256,1710.3096110000042,['r'],1,[8.473399100010283],[None],1710.310509700037,1710.3236867000232,1710.3236867000232,1710.3236867000232,1712.724257600028,2,2.3978020999929868,2,2.3978020999929868,,,,,,,,sub102_AB,001,2026-01-31_09h10.23.620,recognitionstage,,2025.1.1,60.16720466013131,2026-01-31 09h11.04.265812 +0530,
,,,20,20,0,22,frames\Vid22_EM_T.png,frames\Vid22_L.png,['l'],1,[2.737671600014437],[None],5,2.0148479000199586,,,,,0,20,20,21,1712.7596841000486,,21,Male,Left Handed,Normal,,,,,,,,,,,,,,,,,,,,,,,,,,,,,,,,,,,,,,,,1712.75004850002,1712.7596841000486,1712.7596841000486,1712.7596841000486,1712.7596841000486,1712.7596841000486,1712.7596841000486,1715.5091634000419,['l'],1,[2.737671600014437],[None],1715.5099498000345,1715.5238008000306,1715.5238008000306,1715.5238008000306,1717.5412732000113,5,2.0148479000199586,5,2.0148479000199586,,,,,,,,sub102_AB,001,2026-01-31_09h10.23.620,recognitionstage,,2025.1.1,60.16720466013131,2026-01-31 09h11.04.265812 +0530,
,,,21,21,0,28,frames\Vid28_EM_T.png,frames\Vid28_L.png,['r'],1,[3.7319552999688312],[None],5,2.263389300031122,,,,,0,21,21,27,1717.5736978000496,,21,Male,Left Handed,Normal,,,,,,,,,,,,,,,,,,,,,,,,,,,,,,,,,,,,,,,,1717.5643421000568,1717.5736978000496,1717.5736978000496,1717.5736978000496,1717.5736978000496,1717.5736978000496,1717.5736978000496,1721.310272200033,['r'],1,[3.7319552999688312],[None],1721.311507300008,1721.3241899000132,1721.3241899000132,1721.3241899000132,1723.5912973000086,5,2.263389300031122,5,2.263389300031122,,,,,,,,sub102_AB,001,2026-01-31_09h10.23.620,recognitionstage,,2025.1.1,60.16720466013131,2026-01-31 09h11.04.265812 +0530,
,,,22,22,0,10,frames\Vid10_BB_T.png,frames\Vid10_L.png,['l'],1,[2.2157382000004873],[None],5,2.397421600006055,,,,,0,22,22,9,1723.6576594000217,,21,Male,Left Handed,Normal,,,,,,,,,,,,,,,,,,,,,,,,,,,,,,,,,,,,,,,,1723.6492947000079,1723.6576594000217,1723.6576594000217,1723.6576594000217,1723.6576594000217,1723.6576594000217,1723.6576594000217,1725.8768070000224,['l'],1,[2.2157382000004873],[None],1725.877878600033,1725.890320800012,1725.890320800012,1725.890320800012,1728.2908077000175,5,2.397421600006055,5,2.397421600006055,,,,,,,,sub102_AB,001,2026-01-31_09h10.23.620,recognitionstage,,2025.1.1,60.16720466013131,2026-01-31 09h11.04.265812 +0530,
,,,23,23,0,36,frames\Vid36_BB_T.png,frames\Vid36_L.png,['r'],0,[5.354331100010313],[None],1,1.997203000006266,,,,,0,23,23,35,1728.327111600025,,21,Male,Left Handed,Normal,,,,,,,,,,,,,,,,,,,,,,,,,,,,,,,,,,,,,,,,1728.316168600053,1728.327111600025,1728.327111600025,1728.327111600025,1728.327111600025,1728.327111600025,1728.327111600025,1733.6928778000292,['r'],0,[5.354331100010313],[None],1733.6940108000417,1733.707366000046,1733.707366000046,1733.707366000046,1735.7087428000523,1,1.997203000006266,1,1.997203000006266,,,,,,,,sub102_AB,001,2026-01-31_09h10.23.620,recognitionstage,,2025.1.1,60.16720466013131,2026-01-31 09h11.04.265812 +0530,
,,,24,24,0,14,frames\Vid14_BB_T.png,frames\Vid14_L.png,['l'],1,[2.4748958999989554],[None],4,2.0981160000083037,,,,,0,24,24,13,1735.774530900002,,21,Male,Left Handed,Normal,,,,,,,,,,,,,,,,,,,,,,,,,,,,,,,,,,,,,,,,1735.7681284000282,1735.774530900002,1735.774530900002,1735.774530900002,1735.774530900002,1735.774530900002,1735.774530900002,1738.2596546000568,['l'],1,[2.4748958999989554],[None],1738.2605281000142,1738.2738459000248,1738.2738459000248,1738.2738459000248,1740.374387900054,4,2.0981160000083037,4,2.0981160000083037,,,,,,,,sub102_AB,001,2026-01-31_09h10.23.620,recognitionstage,,2025.1.1,60.16720466013131,2026-01-31 09h11.04.265812 +0530,
,,,25,25,0,21,frames\Vid21_BB_T.png,frames\Vid21_L.png,['r'],1,[4.567424900014885],[None],3,2.3480080000008456,,,,,0,25,25,20,1740.4099386000307,,21,Male,Left Handed,Normal,,,,,,,,,,,,,,,,,,,,,,,,,,,,,,,,,,,,,,,,1740.399133400002,1740.4099386000307,1740.4099386000307,1740.4099386000307,1740.4099386000307,1740.4099386000307,1740.4099386000307,1744.9924635000061,['r'],1,[4.567424900014885],[None],1744.9933238000376,1745.0069888000144,1745.0069888000144,1745.0069888000144,1747.3585976000177,3,2.3480080000008456,3,2.3480080000008456,,,,,,,,sub102_AB,001,2026-01-31_09h10.23.620,recognitionstage,,2025.1.1,60.16720466013131,2026-01-31 09h11.04.265812 +0530,
,,,26,26,0,2,frames\Vid2_BB_T.png,frames\Vid2_L.png,['r'],1,[3.2890474999439903],[None],5,1.581263400032185,,,,,0,26,26,1,1747.4244337000418,,21,Male,Left Handed,Normal,,,,,,,,,,,,,,,,,,,,,,,,,,,,,,,,,,,,,,,,1747.4087529000244,1747.4244337000418,1747.4244337000418,1747.4244337000418,1747.4244337000418,1747.4244337000418,1747.4244337000418,1750.7258881000453,['r'],1,[3.2890474999439903],[None],1750.7271633000346,1750.7406265000463,1750.7406265000463,1750.7406265000463,1752.3247600000468,5,1.581263400032185,5,1.581263400032185,,,,,,,,sub102_AB,001,2026-01-31_09h10.23.620,recognitionstage,,2025.1.1,60.16720466013131,2026-01-31 09h11.04.265812 +0530,
,,,27,27,0,26,frames\Vid26_EM_T.png,frames\Vid26_L.png,['r'],1,[4.768879099981859],[None],3,1.9616845000418834,,,,,0,27,27,25,1752.3767075000214,,21,Male,Left Handed,Normal,,,,,,,,,,,,,,,,,,,,,,,,,,,,,,,,,,,,,,,,1752.3553599000443,1752.3767075000214,1752.3767075000214,1752.3767075000214,1752.3767075000214,1752.3767075000214,1752.3767075000214,1757.1615779999993,['r'],1,[4.768879099981859],[None],1757.1634284000029,1757.1890608000103,1757.1890608000103,1757.1890608000103,1759.1411919000093,3,1.9616845000418834,3,1.9616845000418834,,,,,,,,sub102_AB,001,2026-01-31_09h10.23.620,recognitionstage,,2025.1.1,60.16720466013131,2026-01-31 09h11.04.265812 +0530,
,,,28,28,0,13,frames\Vid13_BB_T.png,frames\Vid13_L.png,['r'],0,[4.025688500027172],[None],2,2.148317400016822,,,,,0,28,28,12,1759.2077818000107,,21,Male,Left Handed,Normal,,,,,,,,,,,,,,,,,,,,,,,,,,,,,,,,,,,,,,,,1759.186056800012,1759.2077818000107,1759.2077818000107,1759.2077818000107,1759.2077818000107,1759.2077818000107,1759.2077818000107,1763.2423912000377,['r'],0,[4.025688500027172],[None],1763.2435215000296,1763.2574046000373,1763.2574046000373,1763.2574046000373,1765.4076454000315,2,2.148317400016822,2,2.148317400016822,,,,,,,,sub102_AB,001,2026-01-31_09h10.23.620,recognitionstage,,2025.1.1,60.16720466013131,2026-01-31 09h11.04.265812 +0530,
,,,29,29,0,1,frames\Vid1_EM_T.png,frames\Vid1_L.png,['r'],1,[3.204627800034359],[None],4,2.0130151999765076,,,,,0,29,29,0,1765.4768246000167,,21,Male,Left Handed,Normal,,,,,,,,,,,,,,,,,,,,,,,,,,,,,,,,,,,,,,,,1765.4659127000486,1765.4768246000167,1765.4768246000167,1765.4768246000167,1765.4768246000167,1765.4768246000167,1765.4768246000167,1768.6933520000312,['r'],1,[3.204627800034359],[None],1768.6947711000103,1768.7069823000347,1768.7069823000347,1768.7069823000347,1770.7245357000502,4,2.0130151999765076,4,2.0130151999765076,,,,,,,,sub102_AB,001,2026-01-31_09h10.23.620,recognitionstage,,2025.1.1,60.16720466013131,2026-01-31 09h11.04.265812 +0530,
,,,30,30,0,30,frames\Vid30_EM_T.png,frames\Vid30_L.png,['r'],1,[4.089839399966877],[None],4,2.048802200006321,,,,,0,30,30,29,1770.7598338000244,,21,Male,Left Handed,Normal,,,,,,,,,,,,,,,,,,,,,,,,,,,,,,,,,,,,,,,,1770.746872000047,1770.7598338000244,1770.7598338000244,1770.7598338000244,1770.7598338000244,1770.7598338000244,1770.7598338000244,1774.8587931000511,['r'],1,[4.089839399966877],[None],1774.859792000032,1774.8738804000313,1774.8738804000313,1774.8738804000313,1776.9248582000146,4,2.048802200006321,4,2.048802200006321,,,,,,,,sub102_AB,001,2026-01-31_09h10.23.620,recognitionstage,,2025.1.1,60.16720466013131,2026-01-31 09h11.04.265812 +0530,
,,,31,31,0,5,frames\Vid5_EM_T.png,frames\Vid5_L.png,['r'],1,[3.3794048000127077],[None],4,1.98051470000064,,,,,0,31,31,4,1776.9742925000028,,21,Male,Left Handed,Normal,,,,,,,,,,,,,,,,,,,,,,,,,,,,,,,,,,,,,,,,1776.9669571000268,1776.9742925000028,1776.9742925000028,1776.9742925000028,1776.9742925000028,1776.9742925000028,1776.9742925000028,1780.3597892000107,['r'],1,[3.3794048000127077],[None],1780.3607195000513,1780.3735587000265,1780.3735587000265,1780.3735587000265,1782.3585692000343,4,1.98051470000064,4,1.98051470000064,,,,,,,,sub102_AB,001,2026-01-31_09h10.23.620,recognitionstage,,2025.1.1,60.16720466013131,2026-01-31 09h11.04.265812 +0530,
,,,32,32,0,27,frames\Vid27_BB_T.png,frames\Vid27_L.png,['r'],1,[3.657052399998065],[None],3,2.4643661999725737,,,,,0,32,32,26,1782.3925255000358,,21,Male,Left Handed,Normal,,,,,,,,,,,,,,,,,,,,,,,,,,,,,,,,,,,,,,,,1782.3823994000559,1782.3925255000358,1782.3925255000358,1782.3925255000358,1782.3925255000358,1782.3925255000358,1782.3925255000358,1786.059077700018,['r'],1,[3.657052399998065],[None],1786.0601962000364,1786.0741600000183,1786.0741600000183,1786.0741600000183,1788.5418534000055,3,2.4643661999725737,3,2.4643661999725737,,,,,,,,sub102_AB,001,2026-01-31_09h10.23.620,recognitionstage,,2025.1.1,60.16720466013131,2026-01-31 09h11.04.265812 +0530,
,,,33,33,0,37,frames\Vid37_BB_T.png,frames\Vid37_L.png,['l'],1,[2.9631148999906145],[None],4,3.165315499994904,,,,,0,33,33,36,1788.5904428000213,,21,Male,Left Handed,Normal,,,,,,,,,,,,,,,,,,,,,,,,,,,,,,,,,,,,,,,,1788.5718368000234,1788.5904428000213,1788.5904428000213,1788.5904428000213,1788.5904428000213,1788.5904428000213,1788.5904428000213,1791.5590662000468,['l'],1,[2.9631148999906145],[None],1791.560024800012,1791.573984000017,1791.573984000017,1791.573984000017,1794.741970400035,4,3.165315499994904,4,3.165315499994904,,,,,,,,sub102_AB,001,2026-01-31_09h10.23.620,recognitionstage,,2025.1.1,60.16720466013131,2026-01-31 09h11.04.265812 +0530,
,,,34,34,0,34,frames\Vid34_BB_T.png,frames\Vid34_L.png,['l'],1,[2.4279762000078335],[None],2,1.880921500036493,,,,,0,34,34,33,1794.7737299000146,,21,Male,Left Handed,Normal,,,,,,,,,,,,,,,,,,,,,,,,,,,,,,,,,,,,,,,,1794.7660220000544,1794.7737299000146,1794.7737299000146,1794.7737299000146,1794.7737299000146,1794.7737299000146,1794.7737299000146,1797.209976800019,['l'],1,[2.4279762000078335],[None],1797.211287800048,1797.2240461000474,1797.2240461000474,1797.2240461000474,1799.1079968000413,2,1.880921500036493,2,1.880921500036493,,,,,,,,sub102_AB,001,2026-01-31_09h10.23.620,recognitionstage,,2025.1.1,60.16720466013131,2026-01-31 09h11.04.265812 +0530,
,,,35,35,0,4,frames\Vid4_EM_T.png,frames\Vid4_L.png,['l'],0,[10.882853000017349],[None],3,2.265966799983289,,,,,0,35,35,3,1799.174573700002,,21,Male,Left Handed,Normal,,,,,,,,,,,,,,,,,,,,,,,,,,,,,,,,,,,,,,,,1799.1671542000258,1799.174573700002,1799.174573700002,1799.174573700002,1799.174573700002,1799.174573700002,1799.174573700002,1810.0591683000093,['l'],0,[10.882853000017349],[None],1810.059962600004,1810.0735668000416,1810.0735668000416,1810.0735668000416,1812.3411404000362,3,2.265966799983289,3,2.265966799983289,,,,,,,,sub102_AB,001,2026-01-31_09h10.23.620,recognitionstage,,2025.1.1,60.16720466013131,2026-01-31 09h11.04.265812 +0530,
,,,36,36,0,15,frames\Vid15_BB_T.png,frames\Vid15_L.png,['r'],1,[4.470506199984811],[None],3,1.7480873999884352,,,,,0,36,36,14,1812.4271469000378,,21,Male,Left Handed,Normal,,,,,,,,,,,,,,,,,,,,,,,,,,,,,,,,,,,,,,,,1812.406034100044,1812.4271469000378,1812.4271469000378,1812.4271469000378,1812.4271469000378,1812.4271469000378,1812.4271469000378,1816.9093635000172,['r'],1,[4.470506199984811],[None],1816.910299500043,1816.9235809000093,1816.9235809000093,1816.9235809000093,1818.675413100049,3,1.7480873999884352,3,1.7480873999884352,,,,,,,,sub102_AB,001,2026-01-31_09h10.23.620,recognitionstage,,2025.1.1,60.16720466013131,2026-01-31 09h11.04.265812 +0530,
,,,37,37,0,23,frames\Vid23_EM_T.png,frames\Vid23_L.png,['l'],1,[2.074997399991844],[None],4,1.9816298999940045,,,,,0,37,37,22,1818.726493400056,,21,Male,Left Handed,Normal,,,,,,,,,,,,,,,,,,,,,,,,,,,,,,,,,,,,,,,,1818.7054157000384,1818.726493400056,1818.726493400056,1818.726493400056,1818.726493400056,1818.726493400056,1818.726493400056,1820.8093515000073,['l'],1,[2.074997399991844],[None],1820.810207500006,1820.8235584000358,1820.8235584000358,1820.8235584000358,1822.80871870002,4,1.9816298999940045,4,1.9816298999940045,,,,,,,,sub102_AB,001,2026-01-31_09h10.23.620,recognitionstage,,2025.1.1,60.16720466013131,2026-01-31 09h11.04.265812 +0530,
,,,38,38,0,40,frames\Vid40_EM_T.png,frames\Vid40_L.png,['l'],0,[3.0573520999751054],[None],2,2.1488480000407435,,,,,0,38,38,39,1822.8403031000053,,21,Male,Left Handed,Normal,,,,,,,,,,,,,,,,,,,,,,,,,,,,,,,,,,,,,,,,1822.8311353000463,1822.8403031000053,1822.8403031000053,1822.8403031000053,1822.8403031000053,1822.8403031000053,1822.8403031000053,1825.9089494000073,['l'],0,[3.0573520999751054],[None],1825.9097599000088,1825.9240229999996,1825.9240229999996,1825.9240229999996,1828.0747808000306,2,2.1488480000407435,2,2.1488480000407435,,,,,,,,sub102_AB,001,2026-01-31_09h10.23.620,recognitionstage,,2025.1.1,60.16720466013131,2026-01-31 09h11.04.265812 +0530,
,,,39,39,0,11,frames\Vid11_EM_T.png,frames\Vid11_L.png,['r'],1,[2.4608670999878086],[None],4,2.1829479000298306,,,,,0,39,39,10,1828.1407203000272,,21,Male,Left Handed,Normal,,,,,,,,,,,,,,,,,,,,,,,,,,,,,,,,,,,,,,,,1828.1316982000135,1828.1407203000272,1828.1407203000272,1828.1407203000272,1828.1407203000272,1828.1407203000272,1828.1407203000272,1830.6089624000015,['r'],1,[2.4608670999878086],[None],1830.6098909000284,1830.6240755000035,1830.6240755000035,1830.6240755000035,1832.8077628000174,4,2.1829479000298306,4,2.1829479000298306,,,,,,,,sub102_AB,001,2026-01-31_09h10.23.620,recognitionstage,,2025.1.1,60.16720466013131,2026-01-31 09h11.04.265812 +0530,
,,,,,,,,,,,,,,,,,,,,,,,,,21,Male,Left Handed,Normal,,,,,,,,,,,,,,,,,,,,,,,,,,,,,,,,,,,,,,,,,,,,,,,,,,,,,,,,,,,,,1832.807849600038,1832.8247471000068,1832.8247471000068,1835.0595346000046,space,2.2247404000372626,None,sub102_AB,001,2026-01-31_09h10.23.620,recognitionstage,,2025.1.1,60.16720466013131,2026-01-31 09h11.04.265812 +0530,
