path,duration,is_repeat,thisN,thisTrialN,thisRepN,movie_id,target_img,lure_img,resp.keys,resp.corr,resp.rt,resp.duration,conf_radio.response,conf_radio.rt,movie.thisRepN,movie.thisTrialN,movie.thisN,movie.thisIndex,recogloop.thisRepN,recogloop.thisTrialN,recogloop.thisN,recogloop.thisIndex,thisRow.t,notes,age,gender,handedness,vision,caffeine_2h,alcohol_smoke_12h,demographics.started,demographics.stopped,Instructions.started,text1.started,key_resp.started,Instructions.stopped,key_resp.keys,key_resp.rt,key_resp.duration,instruction_2.started,text2.started,key_resp_2.started,instruction_2.stopped,key_resp_2.keys,key_resp_2.rt,key_resp_2.duration,Videos.started,movie_2.started,vigilance_resp.started,movie_2.stopped,Videos.stopped,movie.vigilance_resp.keys,vigilance_pressed,vigilance_correct,ISI.started,text.started,ISI.stopped,text.stopped,movie.vigilance_resp.rt,movie.vigilance_resp.duration,recognition.started,text_4.started,key_resp_3.started,recognition.stopped,key_resp_3.keys,key_resp_3.rt,key_resp_3.duration,recognition_task.started,leftimage.started,rightimage.started,resp.started,frames_question.started,right_label.started,left_label.started,recognition_task.stopped,recogloop.resp.keys,recogloop.resp.corr,recogloop.resp.rt,recogloop.resp.duration,confidence.started,conf_text.started,conf_radio.started,conf_label.started,confidence.stopped,recogloop.conf_radio.response,recogloop.conf_radio.rt,confidence,confidence_rt,thank_you.started,text_6.started,key_resp_4.started,thank_you.stopped,key_resp_4.keys,key_resp_4.rt,key_resp_4.duration,participant,session,date,expName,expVersion,psychopyVersion,frameRate,expStart,...105
,,,,,,,,,,,,,,,,,,,,,,,,,26,Male,Right handed,Normal,Caffeine consumed in last 2 hours?,Alcohol or smoking in last 12 hours?,0.01908740005455911,0.08426080003846437,,,,,,,,,,,,,,,,,,,,,,,,,,,,,,,,,,,,,,,,,,,,,,,,,,,,,,,,,,,,,,,,sub182_NB,001,2026-02-10_14h53.03.881,recognitionstage,,2025.1.1,60.17582173773372,2026-02-10 14h53.36.182958 +0530,
,,,,,,,,,,,,,,,,,,,,,,,,,26,Male,Right handed,Normal,,,,,0.08428930002264678,0.1025120000122115,0.1025120000122115,7.623777900007553,space,7.51893579994794,None,,,,,,,,,,,,,,,,,,,,,,,,,,,,,,,,,,,,,,,,,,,,,,,,,,,,,,,,,sub182_NB,001,2026-02-10_14h53.03.881,recognitionstage,,2025.1.1,60.17582173773372,2026-02-10 14h53.36.182958 +0530,
,,,,,,,,,,,,,,,,,,,,,,,,,26,Male,Right handed,Normal,,,,,,,,,,,,7.623854200006463,7.6383804000215605,7.6383804000215605,15.138661800068803,space,7.495013799984008,None,,,,,,,,,,,,,,,,,,,,,,,,,,,,,,,,,,,,,,,,,,,,,,,,,,sub182_NB,001,2026-02-10_14h53.03.881,recognitionstage,,2025.1.1,60.17582173773372,2026-02-10 14h53.36.182958 +0530,
Trimmed_videos/natural_1.mp4,19,0,44,44,0,,,,,,,,,,0,44,44,0,,,,,1514.9533494000789,,26,Male,Right handed,Normal,,,,,,,,,,,,,,,,,,,1514.907117200084,1514.9533494000789,1514.9533494000789,1534.1521661999868,1534.0105792999966,None,0,1,1534.1470457999967,1534.1521661999868,1536.6390645999927,1536.6544690000592,1.0790588000090793,None,1536.6391456000274,1536.6544690000592,1536.6544690000592,1552.4549629000248,space,15.798451900016516,None,,,,,,,,,,,,,,,,,,,,,,,,,,,,,sub182_NB,001,2026-02-10_14h53.03.881,recognitionstage,,2025.1.1,60.17582173773372,2026-02-10 14h53.36.182958 +0530,
,,,0,0,0,4,frames\Vid4_EM_T.png,frames\Vid4_L.png,['r'],0,[2.4449601999949664],[None],5,4.948048799997196,,,,,0,0,0,3,1552.5359628000297,,26,Male,Right handed,Normal,,,,,,,,,,,,,,,,,,,,,,,,,,,,,,,,,,,,,,,,1552.5243203000864,1552.5359628000297,1552.5359628000297,1552.5359628000297,1552.5359628000297,1552.5359628000297,1552.5359628000297,1554.9895036000526,['r'],0,[2.4449601999949664],[None],1554.9905224000104,1555.0183730000863,1555.0183730000863,1555.0183730000863,1559.9537752000615,5,4.948048799997196,5,4.948048799997196,,,,,,,,sub182_NB,001,2026-02-10_14h53.03.881,recognitionstage,,2025.1.1,60.17582173773372,2026-02-10 14h53.36.182958 +0530,
,,,1,1,0,13,frames\Vid13_BB_T.png,frames\Vid13_L.png,['l'],0,[2.3850150000071153],[None],3,1.5312219000188634,,,,,0,1,1,12,1560.0357362000505,,26,Male,Right handed,Normal,,,,,,,,,,,,,,,,,,,,,,,,,,,,,,,,,,,,,,,,1560.0216310999822,1560.0357362000505,1560.0357362000505,1560.0357362000505,1560.0357362000505,1560.0357362000505,1560.0357362000505,1562.4226853,['l'],0,[2.3850150000071153],[None],1562.423978200066,1562.4367939999793,1562.4367939999793,1562.4367939999793,1563.9706774000078,3,1.5312219000188634,3,1.5312219000188634,,,,,,,,sub182_NB,001,2026-02-10_14h53.03.881,recognitionstage,,2025.1.1,60.17582173773372,2026-02-10 14h53.36.182958 +0530,
,,,2,2,0,19,frames\Vid19_BB_T.png,frames\Vid19_L.png,['l'],1,[2.902593299979344],[None],4,1.9806828000582755,,,,,0,2,2,18,1564.0061204000376,,26,Male,Right handed,Normal,,,,,,,,,,,,,,,,,,,,,,,,,,,,,,,,,,,,,,,,1563.9964359999867,1564.0061204000376,1564.0061204000376,1564.0061204000376,1564.0061204000376,1564.0061204000376,1564.0061204000376,1566.9225986000383,['l'],1,[2.902593299979344],[None],1566.9236402000533,1566.936725000036,1566.936725000036,1566.936725000036,1568.920928800013,4,1.9806828000582755,4,1.9806828000582755,,,,,,,,sub182_NB,001,2026-02-10_14h53.03.881,recognitionstage,,2025.1.1,60.17582173773372,2026-02-10 14h53.36.182958 +0530,
,,,3,3,0,36,frames\Vid36_BB_T.png,frames\Vid36_L.png,['r'],1,[5.786700600059703],[None],2,1.965289399959147,,,,,0,3,3,35,1568.9540221000789,,26,Male,Right handed,Normal,,,,,,,,,,,,,,,,,,,,,,,,,,,,,,,,,,,,,,,,1568.9473300999962,1568.9540221000789,1568.9540221000789,1568.9540221000789,1568.9540221000789,1568.9540221000789,1568.9540221000789,1574.7549824999878,['r'],1,[5.786700600059703],[None],1574.7557711000554,1574.7704511000775,1574.7704511000775,1574.7704511000775,1576.7377795000793,2,1.965289399959147,2,1.965289399959147,,,,,,,,sub182_NB,001,2026-02-10_14h53.03.881,recognitionstage,,2025.1.1,60.17582173773372,2026-02-10 14h53.36.182958 +0530,
,,,4,4,0,11,frames\Vid11_EM_T.png,frames\Vid11_L.png,['l'],0,[4.544504499994218],[None],3,2.046857300098054,,,,,0,4,4,10,1576.804293400026,,26,Male,Right handed,Normal,,,,,,,,,,,,,,,,,,,,,,,,,,,,,,,,,,,,,,,,1576.793501200038,1576.804293400026,1576.804293400026,1576.804293400026,1576.804293400026,1576.804293400026,1576.804293400026,1581.3563345000148,['l'],0,[4.544504499994218],[None],1581.3572835000232,1581.3701216999907,1581.3701216999907,1581.3701216999907,1583.421367599978,3,2.046857300098054,3,2.046857300098054,,,,,,,,sub182_NB,001,2026-02-10_14h53.03.881,recognitionstage,,2025.1.1,60.17582173773372,2026-02-10 14h53.36.182958 +0530,
,,,5,5,0,3,frames\Vid3_BB_T.png,frames\Vid3_L.png,['l'],1,[3.611177199985832],[None],5,0.9461521999910474,,,,,0,5,5,2,1583.4897476000478,,26,Male,Right handed,Normal,,,,,,,,,,,,,,,,,,,,,,,,,,,,,,,,,,,,,,,,1583.474610400037,1583.4897476000478,1583.4897476000478,1583.4897476000478,1583.4897476000478,1583.4897476000478,1583.4897476000478,1587.1072199000046,['l'],1,[3.611177199985832],[None],1587.1084561999887,1587.134991500061,1587.134991500061,1587.134991500061,1588.0711147000547,5,0.9461521999910474,5,0.9461521999910474,,,,,,,,sub182_NB,001,2026-02-10_14h53.03.881,recognitionstage,,2025.1.1,60.17582173773372,2026-02-10 14h53.36.182958 +0530,
,,,6,6,0,23,frames\Vid23_EM_T.png,frames\Vid23_L.png,['r'],1,[2.633947500027716],[None],4,1.2798717999830842,,,,,0,6,6,22,1588.1228947000345,,26,Male,Right handed,Normal,,,,,,,,,,,,,,,,,,,,,,,,,,,,,,,,,,,,,,,,1588.1012029000558,1588.1228947000345,1588.1228947000345,1588.1228947000345,1588.1228947000345,1588.1228947000345,1588.1228947000345,1590.7731324000051,['r'],1,[2.633947500027716],[None],1590.7742792000063,1590.7864553000545,1590.7864553000545,1590.7864553000545,1592.071215200005,4,1.2798717999830842,4,1.2798717999830842,,,,,,,,sub182_NB,001,2026-02-10_14h53.03.881,recognitionstage,,2025.1.1,60.17582173773372,2026-02-10 14h53.36.182958 +0530,
,,,7,7,0,17,frames\Vid17_BB_T.png,frames\Vid17_L.png,['r'],1,[3.0441128000384197],[None],3,1.8640299999387935,,,,,0,7,7,16,1592.1207470999798,,26,Male,Right handed,Normal,,,,,,,,,,,,,,,,,,,,,,,,,,,,,,,,,,,,,,,,1592.1097538999747,1592.1207470999798,1592.1207470999798,1592.1207470999798,1592.1207470999798,1592.1207470999798,1592.1207470999798,1595.1728550000116,['r'],1,[3.0441128000384197],[None],1595.1740633000154,1595.1865032999776,1595.1865032999776,1595.1865032999776,1597.0542687000707,3,1.8640299999387935,3,1.8640299999387935,,,,,,,,sub182_NB,001,2026-02-10_14h53.03.881,recognitionstage,,2025.1.1,60.17582173773372,2026-02-10 14h53.36.182958 +0530,
,,,8,8,0,12,frames\Vid12_EM_T.png,frames\Vid12_L.png,['r'],1,[2.002578099956736],[None],3,1.1474956999300048,,,,,0,8,8,11,1597.1222777999938,,26,Male,Right handed,Normal,,,,,,,,,,,,,,,,,,,,,,,,,,,,,,,,,,,,,,,,1597.1137256000657,1597.1222777999938,1597.1222777999938,1597.1222777999938,1597.1222777999938,1597.1222777999938,1597.1222777999938,1599.139223300037,['r'],1,[2.002578099956736],[None],1599.1403051000088,1599.1532380999997,1599.1532380999997,1599.1532380999997,1600.3048482000595,3,1.1474956999300048,3,1.1474956999300048,,,,,,,,sub182_NB,001,2026-02-10_14h53.03.881,recognitionstage,,2025.1.1,60.17582173773372,2026-02-10 14h53.36.182958 +0530,
,,,9,9,0,6,frames\Vid6_BB_T.png,frames\Vid6_L.png,['r'],1,[1.8465368000324816],[None],3,1.1127751000458375,,,,,0,9,9,5,1600.390419500065,,26,Male,Right handed,Normal,,,,,,,,,,,,,,,,,,,,,,,,,,,,,,,,,,,,,,,,1600.3798037000233,1600.390419500065,1600.390419500065,1600.390419500065,1600.390419500065,1600.390419500065,1600.390419500065,1602.2405286000576,['r'],1,[1.8465368000324816],[None],1602.2418391000247,1602.2531318999827,1602.2531318999827,1602.2531318999827,1603.3717189000454,3,1.1127751000458375,3,1.1127751000458375,,,,,,,,sub182_NB,001,2026-02-10_14h53.03.881,recognitionstage,,2025.1.1,60.17582173773372,2026-02-10 14h53.36.182958 +0530,
,,,10,10,0,34,frames\Vid34_BB_T.png,frames\Vid34_L.png,['l'],1,[4.878530600108206],[None],2,2.1789546000072733,,,,,0,10,10,33,1603.4064354000147,,26,Male,Right handed,Normal,,,,,,,,,,,,,,,,,,,,,,,,,,,,,,,,,,,,,,,,1603.397215200006,1603.4064354000147,1603.4064354000147,1603.4064354000147,1603.4064354000147,1603.4064354000147,1603.4064354000147,1608.2910010999767,['l'],1,[4.878530600108206],[None],1608.2921759000747,1608.3180758000817,1608.3180758000817,1608.3180758000817,1610.4879414000316,2,2.1789546000072733,2,2.1789546000072733,,,,,,,,sub182_NB,001,2026-02-10_14h53.03.881,recognitionstage,,2025.1.1,60.17582173773372,2026-02-10 14h53.36.182958 +0530,
,,,11,11,0,28,frames\Vid28_EM_T.png,frames\Vid28_L.png,['r'],1,[1.8039686999982223],[None],5,2.2468413000460714,,,,,0,11,11,27,1610.536804900039,,26,Male,Right handed,Normal,,,,,,,,,,,,,,,,,,,,,,,,,,,,,,,,,,,,,,,,1610.5176159000257,1610.536804900039,1610.536804900039,1610.536804900039,1610.536804900039,1610.536804900039,1610.536804900039,1612.3561826000223,['r'],1,[1.8039686999982223],[None],1612.3571976000676,1612.3698936,1612.3698936,1612.3698936,1614.6210715000052,5,2.2468413000460714,5,2.2468413000460714,,,,,,,,sub182_NB,001,2026-02-10_14h53.03.881,recognitionstage,,2025.1.1,60.17582173773372,2026-02-10 14h53.36.182958 +0530,
,,,12,12,0,37,frames\Vid37_BB_T.png,frames\Vid37_L.png,['r'],1,[2.1266371000092477],[None],5,1.3152661999920383,,,,,0,12,12,36,1614.6701793000102,,26,Male,Right handed,Normal,,,,,,,,,,,,,,,,,,,,,,,,,,,,,,,,,,,,,,,,1614.648956799996,1614.6701793000102,1614.6701793000102,1614.6701793000102,1614.6701793000102,1614.6701793000102,1614.6701793000102,1616.8051184000215,['r'],1,[2.1266371000092477],[None],1616.8060378000373,1616.8202948999824,1616.8202948999824,1616.8202948999824,1618.1378069000784,5,1.3152661999920383,5,1.3152661999920383,,,,,,,,sub182_NB,001,2026-02-10_14h53.03.881,recognitionstage,,2025.1.1,60.17582173773372,2026-02-10 14h53.36.182958 +0530,
,,,13,13,0,1,frames\Vid1_EM_T.png,frames\Vid1_L.png,['l'],1,[2.087979199946858],[None],4,1.9483051999704912,,,,,0,13,13,0,1618.2209511999972,,26,Male,Right handed,Normal,,,,,,,,,,,,,,,,,,,,,,,,,,,,,,,,,,,,,,,,1618.1987248000223,1618.2209511999972,1618.2209511999972,1618.2209511999972,1618.2209511999972,1618.2209511999972,1618.2209511999972,1620.322054499993,['l'],1,[2.087979199946858],[None],1620.3230143000837,1620.336904900032,1620.336904900032,1620.336904900032,1622.2870472000213,4,1.9483051999704912,4,1.9483051999704912,,,,,,,,sub182_NB,001,2026-02-10_14h53.03.881,recognitionstage,,2025.1.1,60.17582173773372,2026-02-10 14h53.36.182958 +0530,
,,,14,14,0,8,frames\Vid8_BB_T.png,frames\Vid8_L.png,['r'],0,[2.7512940999586135],[None],5,1.2743075999896973,,,,,0,14,14,7,1622.3574899000814,,26,Male,Right handed,Normal,,,,,,,,,,,,,,,,,,,,,,,,,,,,,,,,,,,,,,,,1622.3383208999876,1622.3574899000814,1622.3574899000814,1622.3574899000814,1622.3574899000814,1622.3574899000814,1622.3574899000814,1625.163336800062,['r'],0,[2.7512940999586135],[None],1625.163910000003,1625.1846830000868,1625.1846830000868,1625.1846830000868,1626.454473300022,5,1.2743075999896973,5,1.2743075999896973,,,,,,,,sub182_NB,001,2026-02-10_14h53.03.881,recognitionstage,,2025.1.1,60.17582173773372,2026-02-10 14h53.36.182958 +0530,
,,,15,15,0,18,frames\Vid18_EM_T.png,frames\Vid18_L.png,['l'],1,[3.0993711999617517],[None],4,2.8812046999810264,,,,,0,15,15,17,1626.4896224000258,,26,Male,Right handed,Normal,,,,,,,,,,,,,,,,,,,,,,,,,,,,,,,,,,,,,,,,1626.4797278000042,1626.4896224000258,1626.4896224000258,1626.4896224000258,1626.4896224000258,1626.4896224000258,1626.4896224000258,1629.6060743000126,['l'],1,[3.0993711999617517],[None],1629.6069843000732,1629.620116700069,1629.620116700069,1629.620116700069,1632.504795200075,4,2.8812046999810264,4,2.8812046999810264,,,,,,,,sub182_NB,001,2026-02-10_14h53.03.881,recognitionstage,,2025.1.1,60.17582173773372,2026-02-10 14h53.36.182958 +0530,
,,,16,16,0,33,frames\Vid33_BB_T.png,frames\Vid33_L.png,['l'],1,[2.0281967000337318],[None],4,1.0487775000510737,,,,,0,16,16,32,1632.5366738000885,,26,Male,Right handed,Normal,,,,,,,,,,,,,,,,,,,,,,,,,,,,,,,,,,,,,,,,1632.5305744999787,1632.5366738000885,1632.5366738000885,1632.5366738000885,1632.5366738000885,1632.5366738000885,1632.5366738000885,1634.571671599988,['l'],1,[2.0281967000337318],[None],1634.572553300066,1634.5869604999898,1634.5869604999898,1634.5869604999898,1635.637684000074,4,1.0487775000510737,4,1.0487775000510737,,,,,,,,sub182_NB,001,2026-02-10_14h53.03.881,recognitionstage,,2025.1.1,60.17582173773372,2026-02-10 14h53.36.182958 +0530,
,,,17,17,0,30,frames\Vid30_EM_T.png,frames\Vid30_L.png,['r'],1,[2.4305526999523863],[None],3,2.5307823000475764,,,,,0,17,17,29,1635.6703320000088,,26,Male,Right handed,Normal,,,,,,,,,,,,,,,,,,,,,,,,,,,,,,,,,,,,,,,,1635.6616953000193,1635.6703320000088,1635.6703320000088,1635.6703320000088,1635.6703320000088,1635.6703320000088,1635.6703320000088,1638.1056998000713,['r'],1,[2.4305526999523863],[None],1638.1067710000789,1638.1202113999752,1638.1202113999752,1638.1202113999752,1640.6541941000614,3,2.5307823000475764,3,2.5307823000475764,,,,,,,,sub182_NB,001,2026-02-10_14h53.03.881,recognitionstage,,2025.1.1,60.17582173773372,2026-02-10 14h53.36.182958 +0530,
,,,18,18,0,27,frames\Vid27_BB_T.png,frames\Vid27_L.png,['r'],1,[2.7579239000333473],[None],3,0.78153260005638,,,,,0,18,18,26,1640.6869142000796,,26,Male,Right handed,Normal,,,,,,,,,,,,,,,,,,,,,,,,,,,,,,,,,,,,,,,,1640.6782284000656,1640.6869142000796,1640.6869142000796,1640.6869142000796,1640.6869142000796,1640.6869142000796,1640.6869142000796,1643.4555408000015,['r'],1,[2.7579239000333473],[None],1643.4566363000777,1643.4851532999892,1643.4851532999892,1643.4851532999892,1644.2544451000867,3,0.78153260005638,3,0.78153260005638,,,,,,,,sub182_NB,001,2026-02-10_14h53.03.881,recognitionstage,,2025.1.1,60.17582173773372,2026-02-10 14h53.36.182958 +0530,
,,,19,19,0,7,frames\Vid7_EM_T.png,frames\Vid7_L.png,['l'],0,[2.555727200000547],[None],4,1.6650050999596715,,,,,0,19,19,6,1644.3370882000308,,26,Male,Right handed,Normal,,,,,,,,,,,,,,,,,,,,,,,,,,,,,,,,,,,,,,,,1644.3147364000324,1644.3370882000308,1644.3370882000308,1644.3370882000308,1644.3370882000308,1644.3370882000308,1644.3370882000308,1646.9051257000538,['l'],0,[2.555727200000547],[None],1646.9060180999804,1646.920196400024,1646.920196400024,1646.920196400024,1648.5883442000486,4,1.6650050999596715,4,1.6650050999596715,,,,,,,,sub182_NB,001,2026-02-10_14h53.03.881,recognitionstage,,2025.1.1,60.17582173773372,2026-02-10 14h53.36.182958 +0530,
,,,20,20,0,26,frames\Vid26_EM_T.png,frames\Vid26_L.png,['l'],0,[3.81398940004874],[None],4,2.0958277999889106,,,,,0,20,20,25,1648.6393052000785,,26,Male,Right handed,Normal,,,,,,,,,,,,,,,,,,,,,,,,,,,,,,,,,,,,,,,,1648.6187853000592,1648.6393052000785,1648.6393052000785,1648.6393052000785,1648.6393052000785,1648.6393052000785,1648.6393052000785,1652.4572828999953,['l'],0,[3.81398940004874],[None],1652.4588754000142,1652.4852789000142,1652.4852789000142,1652.4852789000142,1654.5716835000785,4,2.0958277999889106,4,2.0958277999889106,,,,,,,,sub182_NB,001,2026-02-10_14h53.03.881,recognitionstage,,2025.1.1,60.17582173773372,2026-02-10 14h53.36.182958 +0530,
,,,21,21,0,29,frames\Vid29_BB_T.png,frames\Vid29_L.png,['r'],1,[2.6892275999998674],[None],4,0.7488076000008732,,,,,0,21,21,28,1654.6037106000585,,26,Male,Right handed,Normal,,,,,,,,,,,,,,,,,,,,,,,,,,,,,,,,,,,,,,,,1654.5974736000644,1654.6037106000585,1654.6037106000585,1654.6037106000585,1654.6037106000585,1654.6037106000585,1654.6037106000585,1657.3055863999762,['r'],1,[2.6892275999998674],[None],1657.3067540000193,1657.3207259000046,1657.3207259000046,1657.3207259000046,1658.0710143999895,4,0.7488076000008732,4,0.7488076000008732,,,,,,,,sub182_NB,001,2026-02-10_14h53.03.881,recognitionstage,,2025.1.1,60.17582173773372,2026-02-10 14h53.36.182958 +0530,
,,,22,22,0,31,frames\Vid31_EM_T.png,frames\Vid31_L.png,['r'],1,[1.9974609999917448],[None],4,0.3636867000022903,,,,,0,22,22,30,1658.1035078000277,,26,Male,Right handed,Normal,,,,,,,,,,,,,,,,,,,,,,,,,,,,,,,,,,,,,,,,1658.093715700088,1658.1035078000277,1658.1035078000277,1658.1035078000277,1658.1035078000277,1658.1035078000277,1658.1035078000277,1660.106155000045,['r'],1,[1.9974609999917448],[None],1660.107420800021,1660.1203909000615,1660.1203909000615,1660.1203909000615,1660.48837799998,4,0.3636867000022903,4,0.3636867000022903,,,,,,,,sub182_NB,001,2026-02-10_14h53.03.881,recognitionstage,,2025.1.1,60.17582173773372,2026-02-10 14h53.36.182958 +0530,
,,,23,23,0,9,frames\Vid9_EM_T.png,frames\Vid9_L.png,['r'],1,[2.7309444999555126],[None],4,0.8793861999874935,,,,,0,23,23,8,1660.5540151000023,,26,Male,Right handed,Normal,,,,,,,,,,,,,,,,,,,,,,,,,,,,,,,,,,,,,,,,1660.5398378000828,1660.5540151000023,1660.5540151000023,1660.5540151000023,1660.5540151000023,1660.5540151000023,1660.5540151000023,1663.2900950000621,['r'],1,[2.7309444999555126],[None],1663.2918162000133,1663.318577200058,1663.318577200058,1663.318577200058,1664.1878902000608,4,0.8793861999874935,4,0.8793861999874935,,,,,,,,sub182_NB,001,2026-02-10_14h53.03.881,recognitionstage,,2025.1.1,60.17582173773372,2026-02-10 14h53.36.182958 +0530,
,,,24,24,0,21,frames\Vid21_BB_T.png,frames\Vid21_L.png,['r'],1,[3.1893751999596134],[None],4,0.5646927000489086,,,,,0,24,24,20,1664.2394448000705,,26,Male,Right handed,Normal,,,,,,,,,,,,,,,,,,,,,,,,,,,,,,,,,,,,,,,,1664.2164837000892,1664.2394448000705,1664.2394448000705,1664.2394448000705,1664.2394448000705,1664.2394448000705,1664.2394448000705,1667.4388916000025,['r'],1,[3.1893751999596134],[None],1667.4397134999745,1667.4536367000546,1667.4536367000546,1667.4536367000546,1668.021709099994,4,0.5646927000489086,4,0.5646927000489086,,,,,,,,sub182_NB,001,2026-02-10_14h53.03.881,recognitionstage,,2025.1.1,60.17582173773372,2026-02-10 14h53.36.182958 +0530,
,,,25,25,0,20,frames\Vid20_EM_T.png,frames\Vid20_L.png,['r'],1,[1.623168999911286],[None],4,0.6490059000207111,,,,,0,25,25,19,1668.0535594000248,,26,Male,Right handed,Normal,,,,,,,,,,,,,,,,,,,,,,,,,,,,,,,,,,,,,,,,1668.0422094999813,1668.0535594000248,1668.0535594000248,1668.0535594000248,1668.0535594000248,1668.0535594000248,1668.0535594000248,1669.6885423000203,['r'],1,[1.623168999911286],[None],1669.6895119000692,1669.703601700021,1669.703601700021,1669.703601700021,1670.3543762000045,4,0.6490059000207111,4,0.6490059000207111,,,,,,,,sub182_NB,001,2026-02-10_14h53.03.881,recognitionstage,,2025.1.1,60.17582173773372,2026-02-10 14h53.36.182958 +0530,
,,,26,26,0,25,frames\Vid25_BB_T.png,frames\Vid25_L.png,['l'],1,[2.1544054000405595],[None],4,0.8827319999691099,,,,,0,26,26,24,1670.3863672000589,,26,Male,Right handed,Normal,,,,,,,,,,,,,,,,,,,,,,,,,,,,,,,,,,,,,,,,1670.3798347000265,1670.3863672000589,1670.3863672000589,1670.3863672000589,1670.3863672000589,1670.3863672000589,1670.3863672000589,1672.5551905999891,['l'],1,[2.1544054000405595],[None],1672.5560588000808,1672.570360200014,1672.570360200014,1672.570360200014,1673.4539533000207,4,0.8827319999691099,4,0.8827319999691099,,,,,,,,sub182_NB,001,2026-02-10_14h53.03.881,recognitionstage,,2025.1.1,60.17582173773372,2026-02-10 14h53.36.182958 +0530,
,,,27,27,0,16,frames\Vid16_EM_T.png,frames\Vid16_L.png,['l'],0,[5.7160781000275165],[None],4,0.5815642999950796,,,,,0,27,27,15,1673.52076330001,,26,Male,Right handed,Normal,,,,,,,,,,,,,,,,,,,,,,,,,,,,,,,,,,,,,,,,1673.5095824000891,1673.52076330001,1673.52076330001,1673.52076330001,1673.52076330001,1673.52076330001,1673.52076330001,1679.2385362000205,['l'],0,[5.7160781000275165],[None],1679.2393265999854,1679.2533981000306,1679.2533981000306,1679.2533981000306,1679.838218000019,4,0.5815642999950796,4,0.5815642999950796,,,,,,,,sub182_NB,001,2026-02-10_14h53.03.881,recognitionstage,,2025.1.1,60.17582173773372,2026-02-10 14h53.36.182958 +0530,
,,,28,28,0,39,frames\Vid39_BB_T.png,frames\Vid39_L.png,['l'],1,[4.12372100003995],[None],4,0.6647577999392524,,,,,0,28,28,38,1679.8730758000165,,26,Male,Right handed,Normal,,,,,,,,,,,,,,,,,,,,,,,,,,,,,,,,,,,,,,,,1679.8611562000588,1679.8730758000165,1679.8730758000165,1679.8730758000165,1679.8730758000165,1679.8730758000165,1679.8730758000165,1684.0054400999798,['l'],1,[4.12372100003995],[None],1684.0063861000817,1684.0355806000298,1684.0355806000298,1684.0355806000298,1684.688306700089,4,0.6647577999392524,4,0.6647577999392524,,,,,,,,sub182_NB,001,2026-02-10_14h53.03.881,recognitionstage,,2025.1.1,60.17582173773372,2026-02-10 14h53.36.182958 +0530,
,,,29,29,0,10,frames\Vid10_BB_T.png,frames\Vid10_L.png,['l'],0,[4.538675099960528],[None],4,0.8121274999575689,,,,,0,29,29,9,1684.7540903000627,,26,Male,Right handed,Normal,,,,,,,,,,,,,,,,,,,,,,,,,,,,,,,,,,,,,,,,1684.7448754999787,1684.7540903000627,1684.7540903000627,1684.7540903000627,1684.7540903000627,1684.7540903000627,1684.7540903000627,1689.3077460000059,['l'],0,[4.538675099960528],[None],1689.3094701999798,1689.3350161000853,1689.3350161000853,1689.3350161000853,1690.1376097999746,4,0.8121274999575689,4,0.8121274999575689,,,,,,,,sub182_NB,001,2026-02-10_14h53.03.881,recognitionstage,,2025.1.1,60.17582173773372,2026-02-10 14h53.36.182958 +0530,
,,,30,30,0,24,frames\Vid24_BB_T.png,frames\Vid24_L.png,['r'],1,[2.510976600111462],[None],5,2.097283599898219,,,,,0,30,30,23,1690.1898224999895,,26,Male,Right handed,Normal,,,,,,,,,,,,,,,,,,,,,,,,,,,,,,,,,,,,,,,,1690.1655819000443,1690.1898224999895,1690.1898224999895,1690.1898224999895,1690.1898224999895,1690.1898224999895,1690.1898224999895,1692.7063873000443,['r'],1,[2.510976600111462],[None],1692.7077033000533,1692.7200825000182,1692.7200825000182,1692.7200825000182,1694.8207066999748,5,2.097283599898219,5,2.097283599898219,,,,,,,,sub182_NB,001,2026-02-10_14h53.03.881,recognitionstage,,2025.1.1,60.17582173773372,2026-02-10 14h53.36.182958 +0530,
,,,31,31,0,40,frames\Vid40_EM_T.png,frames\Vid40_L.png,['r'],1,[3.0392176000168547],[None],5,1.231191199971363,,,,,0,31,31,39,1694.8535382000264,,26,Male,Right handed,Normal,,,,,,,,,,,,,,,,,,,,,,,,,,,,,,,,,,,,,,,,1694.8420391000109,1694.8535382000264,1694.8535382000264,1694.8535382000264,1694.8535382000264,1694.8535382000264,1694.8535382000264,1697.9063057000749,['r'],1,[3.0392176000168547],[None],1697.9072491000406,1697.919936500024,1697.919936500024,1697.919936500024,1699.1544704000698,5,1.231191199971363,5,1.231191199971363,,,,,,,,sub182_NB,001,2026-02-10_14h53.03.881,recognitionstage,,2025.1.1,60.17582173773372,2026-02-10 14h53.36.182958 +0530,
,,,32,32,0,32,frames\Vid32_EM_T.png,frames\Vid32_L.png,['r'],1,[2.2981927999062464],[None],5,0.5648311999393627,,,,,0,32,32,31,1699.1865577000426,,26,Male,Right handed,Normal,,,,,,,,,,,,,,,,,,,,,,,,,,,,,,,,,,,,,,,,1699.1798647000687,1699.1865577000426,1699.1865577000426,1699.1865577000426,1699.1865577000426,1699.1865577000426,1699.1865577000426,1701.4884591000155,['r'],1,[2.2981927999062464],[None],1701.489437000011,1701.5038873000303,1701.5038873000303,1701.5038873000303,1702.0718298000284,5,0.5648311999393627,5,0.5648311999393627,,,,,,,,sub182_NB,001,2026-02-10_14h53.03.881,recognitionstage,,2025.1.1,60.17582173773372,2026-02-10 14h53.36.182958 +0530,
,,,33,33,0,22,frames\Vid22_EM_T.png,frames\Vid22_L.png,['r'],1,[3.8605033999774605],[None],5,0.5647610999876633,,,,,0,33,33,21,1702.1201893000398,,26,Male,Right handed,Normal,,,,,,,,,,,,,,,,,,,,,,,,,,,,,,,,,,,,,,,,1702.0995155000128,1702.1201893000398,1702.1201893000398,1702.1201893000398,1702.1201893000398,1702.1201893000398,1702.1201893000398,1705.9885774999857,['r'],1,[3.8605033999774605],[None],1705.9894979000092,1706.00354960002,1706.00354960002,1706.00354960002,1706.571671099984,5,0.5647610999876633,5,0.5647610999876633,,,,,,,,sub182_NB,001,2026-02-10_14h53.03.881,recognitionstage,,2025.1.1,60.17582173773372,2026-02-10 14h53.36.182958 +0530,
,,,34,34,0,2,frames\Vid2_BB_T.png,frames\Vid2_L.png,['l'],1,[2.5752400000346825],[None],5,0.5650973001029342,,,,,0,34,34,1,1706.6374915000051,,26,Male,Right handed,Normal,,,,,,,,,,,,,,,,,,,,,,,,,,,,,,,,,,,,,,,,1706.6233350000111,1706.6374915000051,1706.6374915000051,1706.6374915000051,1706.6374915000051,1706.6374915000051,1706.6374915000051,1709.2222431000555,['l'],1,[2.5752400000346825],[None],1709.223030699999,1709.2365489000222,1709.2365489000222,1709.2365489000222,1709.804191500065,5,0.5650973001029342,5,0.5650973001029342,,,,,,,,sub182_NB,001,2026-02-10_14h53.03.881,recognitionstage,,2025.1.1,60.17582173773372,2026-02-10 14h53.36.182958 +0530,
,,,35,35,0,5,frames\Vid5_EM_T.png,frames\Vid5_L.png,['l'],1,[2.827519099926576],[None],5,0.4968874000478536,,,,,0,35,35,4,1709.8733752000844,,26,Male,Right handed,Normal,,,,,,,,,,,,,,,,,,,,,,,,,,,,,,,,,,,,,,,,1709.849920400069,1709.8733752000844,1709.8733752000844,1709.8733752000844,1709.8733752000844,1709.8733752000844,1709.8733752000844,1712.7055590000236,['l'],1,[2.827519099926576],[None],1712.7072789000813,1712.7204715000698,1712.7204715000698,1712.7204715000698,1713.22127129999,5,0.4968874000478536,5,0.4968874000478536,,,,,,,,sub182_NB,001,2026-02-10_14h53.03.881,recognitionstage,,2025.1.1,60.17582173773372,2026-02-10 14h53.36.182958 +0530,
,,,36,36,0,35,frames\Vid35_EM_T.png,frames\Vid35_L.png,['l'],1,[2.4856646000407636],[None],5,0.38165760005358607,,,,,0,36,36,34,1713.2555264000548,,26,Male,Right handed,Normal,,,,,,,,,,,,,,,,,,,,,,,,,,,,,,,,,,,,,,,,1713.2441873999778,1713.2555264000548,1713.2555264000548,1713.2555264000548,1713.2555264000548,1713.2555264000548,1713.2555264000548,1715.755648600054,['l'],1,[2.4856646000407636],[None],1715.7565836000722,1715.7847210000036,1715.7847210000036,1715.7847210000036,1716.1539944000542,5,0.38165760005358607,5,0.38165760005358607,,,,,,,,sub182_NB,001,2026-02-10_14h53.03.881,recognitionstage,,2025.1.1,60.17582173773372,2026-02-10 14h53.36.182958 +0530,
,,,37,37,0,14,frames\Vid14_BB_T.png,frames\Vid14_L.png,['l'],1,[1.7039464000845328],[None],5,0.21452779998071492,,,,,0,37,37,13,1716.220720799989,,26,Male,Right handed,Normal,,,,,,,,,,,,,,,,,,,,,,,,,,,,,,,,,,,,,,,,1716.2134619000135,1716.220720799989,1716.220720799989,1716.220720799989,1716.220720799989,1716.220720799989,1716.220720799989,1717.9389249000233,['l'],1,[1.7039464000845328],[None],1717.9397339000134,1717.953194700065,1717.953194700065,1717.953194700065,1718.1711757000303,5,0.21452779998071492,5,0.21452779998071492,,,,,,,,sub182_NB,001,2026-02-10_14h53.03.881,recognitionstage,,2025.1.1,60.17582173773372,2026-02-10 14h53.36.182958 +0530,
,,,38,38,0,15,frames\Vid15_BB_T.png,frames\Vid15_L.png,['r'],0,[3.9959480999968946],[None],5,0.6826803999720141,,,,,0,38,38,14,1718.2567562999902,,26,Male,Right handed,Normal,,,,,,,,,,,,,,,,,,,,,,,,,,,,,,,,,,,,,,,,1718.235318500083,1718.2567562999902,1718.2567562999902,1718.2567562999902,1718.2567562999902,1718.2567562999902,1718.2567562999902,1722.2545909000328,['r'],0,[3.9959480999968946],[None],1722.2552867999766,1722.2702791000484,1722.2702791000484,1722.2702791000484,1722.954303800012,5,0.6826803999720141,5,0.6826803999720141,,,,,,,,sub182_NB,001,2026-02-10_14h53.03.881,recognitionstage,,2025.1.1,60.17582173773372,2026-02-10 14h53.36.182958 +0530,
,,,39,39,0,38,frames\Vid38_EM_T.png,frames\Vid38_L.png,['l'],1,[3.647540000034496],[None],5,0.446077200002037,,,,,0,39,39,37,1722.9896365000168,,26,Male,Right handed,Normal,,,,,,,,,,,,,,,,,,,,,,,,,,,,,,,,,,,,,,,,1722.9803607000504,1722.9896365000168,1722.9896365000168,1722.9896365000168,1722.9896365000168,1722.9896365000168,1722.9896365000168,1726.6406848999904,['l'],1,[3.647540000034496],[None],1726.642172300024,1726.6683162000263,1726.6683162000263,1726.6683162000263,1727.1044072000077,5,0.446077200002037,5,0.446077200002037,,,,,,,,sub182_NB,001,2026-02-10_14h53.03.881,recognitionstage,,2025.1.1,60.17582173773372,2026-02-10 14h53.36.182958 +0530,
,,,,,,,,,,,,,,,,,,,,,,,,,26,Male,Right handed,Normal,,,,,,,,,,,,,,,,,,,,,,,,,,,,,,,,,,,,,,,,,,,,,,,,,,,,,,,,,,,,,1727.1045296000084,1727.1210051000817,1727.1210051000817,1732.6215928000165,space,5.499676099978387,None,sub182_NB,001,2026-02-10_14h53.03.881,recognitionstage,,2025.1.1,60.17582173773372,2026-02-10 14h53.36.182958 +0530,
