path,duration,is_repeat,thisN,thisTrialN,thisRepN,movie_id,target_img,lure_img,resp.keys,resp.corr,resp.rt,resp.duration,conf_radio.response,conf_radio.rt,movie.thisRepN,movie.thisTrialN,movie.thisN,movie.thisIndex,recogloop.thisRepN,recogloop.thisTrialN,recogloop.thisN,recogloop.thisIndex,thisRow.t,notes,age,gender,handedness,vision,caffeine_2h,alcohol_smoke_12h,demographics.started,demographics.stopped,Instructions.started,text1.started,key_resp.started,Instructions.stopped,key_resp.keys,key_resp.rt,key_resp.duration,instruction_2.started,text2.started,key_resp_2.started,instruction_2.stopped,key_resp_2.keys,key_resp_2.rt,key_resp_2.duration,Videos.started,movie_2.started,vigilance_resp.started,movie_2.stopped,Videos.stopped,movie.vigilance_resp.keys,vigilance_pressed,vigilance_correct,ISI.started,text.started,ISI.stopped,text.stopped,movie.vigilance_resp.rt,movie.vigilance_resp.duration,recognition.started,text_4.started,key_resp_3.started,recognition.stopped,key_resp_3.keys,key_resp_3.rt,key_resp_3.duration,recognition_task.started,leftimage.started,rightimage.started,resp.started,frames_question.started,right_label.started,left_label.started,recognition_task.stopped,recogloop.resp.keys,recogloop.resp.corr,recogloop.resp.rt,recogloop.resp.duration,confidence.started,conf_text.started,conf_radio.started,conf_label.started,confidence.stopped,recogloop.conf_radio.response,recogloop.conf_radio.rt,confidence,confidence_rt,thank_you.started,text_6.started,key_resp_4.started,thank_you.stopped,key_resp_4.keys,key_resp_4.rt,key_resp_4.duration,participant,session,date,expName,expVersion,psychopyVersion,frameRate,expStart,...105
,,,,,,,,,,,,,,,,,,,,,,,,,22,Female,Right handed,Normal,Caffeine consumed in last 2 hours?,Alcohol or smoking in last 12 hours?,0.0041299000004073605,0.006500499999674503,,,,,,,,,,,,,,,,,,,,,,,,,,,,,,,,,,,,,,,,,,,,,,,,,,,,,,,,,,,,,,,,sub123_AB,001,2026-02-01_17h40.48.829,recognitionstage,,2025.1.1,59.65981970832583,2026-02-01 17h41.55.693341 +0530,
,,,,,,,,,,,,,,,,,,,,,,,,,22,Female,Right handed,Normal,,,,,0.006521699999211705,0.02342809999936435,0.02342809999936435,10.692885000000388,space,10.656050699999469,None,,,,,,,,,,,,,,,,,,,,,,,,,,,,,,,,,,,,,,,,,,,,,,,,,,,,,,,,,sub123_AB,001,2026-02-01_17h40.48.829,recognitionstage,,2025.1.1,59.65981970832583,2026-02-01 17h41.55.693341 +0530,
,,,,,,,,,,,,,,,,,,,,,,,,,22,Female,Right handed,Normal,,,,,,,,,,,,10.692937100000563,10.707903700000315,10.707903700000315,19.592923500000325,space,8.867445100000623,None,,,,,,,,,,,,,,,,,,,,,,,,,,,,,,,,,,,,,,,,,,,,,,,,,,sub123_AB,001,2026-02-01_17h40.48.829,recognitionstage,,2025.1.1,59.65981970832583,2026-02-01 17h41.55.693341 +0530,
abrupt_videos\abrupt_28.mp4,48,1,44,44,0,,,,,,,,,,0,44,44,31,,,,,1536.1554923000003,,22,Female,Right handed,Normal,,,,,,,,,,,,,,,,,,,1536.1058415999996,1536.1554923000003,1536.1554923000003,1525.3049995000001,1537.9747141999997,space,1,1,1538.1062812,1538.1216494,1540.6080299999994,1495.8390130000007,1.803261899998688,None,1540.6081178000004,1540.6240349,1540.6240349,1577.3413074,space,36.70285310000145,None,,,,,,,,,,,,,,,,,,,,,,,,,,,,,sub123_AB,001,2026-02-01_17h40.48.829,recognitionstage,,2025.1.1,59.65981970832583,2026-02-01 17h41.55.693341 +0530,
,,,0,0,0,36,frames\Vid36_BB_T.png,frames\Vid36_L.png,['r'],1,[8.051470900001732],[None],5,8.547841300000073,,,,,0,0,0,35,1577.3712716999999,,22,Female,Right handed,Normal,,,,,,,,,,,,,,,,,,,,,,,,,,,,,,,,,,,,,,,,1577.3623554000005,1577.3712716999999,1577.3712716999999,1577.3712716999999,1577.3712716999999,1577.3712716999999,1577.3712716999999,1585.4252706999996,['r'],1,[8.051470900001732],[None],1585.4262254000005,1585.4538673999996,1585.4538673999996,1585.4538673999996,1593.9901608,5,8.547841300000073,5,8.547841300000073,,,,,,,,sub123_AB,001,2026-02-01_17h40.48.829,recognitionstage,,2025.1.1,59.65981970832583,2026-02-01 17h41.55.693341 +0530,
,,,1,1,0,5,frames\Vid5_EM_T.png,frames\Vid5_L.png,['l'],1,[10.856662800000777],[None],1,2.2635761000001366,,,,,0,1,1,4,1594.0382663,,22,Female,Right handed,Normal,,,,,,,,,,,,,,,,,,,,,,,,,,,,,,,,,,,,,,,,1594.025146599999,1594.0382663,1594.0382663,1594.0382663,1594.0382663,1594.0382663,1594.0382663,1604.9082670000007,['l'],1,[10.856662800000777],[None],1604.909574199999,1604.9230057000004,1604.9230057000004,1604.9230057000004,1607.1898774000001,1,2.2635761000001366,1,2.2635761000001366,,,,,,,,sub123_AB,001,2026-02-01_17h40.48.829,recognitionstage,,2025.1.1,59.65981970832583,2026-02-01 17h41.55.693341 +0530,
,,,2,2,0,13,frames\Vid13_BB_T.png,frames\Vid13_L.png,['l'],0,[4.86440279999988],[None],5,3.0801940000001196,,,,,0,2,2,12,1607.2547646999992,,22,Female,Right handed,Normal,,,,,,,,,,,,,,,,,,,,,,,,,,,,,,,,,,,,,,,,1607.2338488999994,1607.2547646999992,1607.2547646999992,1607.2547646999992,1607.2547646999992,1607.2547646999992,1607.2547646999992,1612.1262148999995,['l'],0,[4.86440279999988],[None],1612.1277224000005,1612.1539874999999,1612.1539874999999,1612.1539874999999,1615.2234370999995,5,3.0801940000001196,5,3.0801940000001196,,,,,,,,sub123_AB,001,2026-02-01_17h40.48.829,recognitionstage,,2025.1.1,59.65981970832583,2026-02-01 17h41.55.693341 +0530,
,,,3,3,0,16,frames\Vid16_EM_T.png,frames\Vid16_L.png,['l'],1,[3.7873026999986905],[None],5,2.2644739000006666,,,,,0,3,3,15,1615.2755464000002,,22,Female,Right handed,Normal,,,,,,,,,,,,,,,,,,,,,,,,,,,,,,,,,,,,,,,,1615.264989199999,1615.2755464000002,1615.2755464000002,1615.2755464000002,1615.2755464000002,1615.2755464000002,1615.2755464000002,1619.0748877000005,['l'],1,[3.7873026999986905],[None],1619.0759022999991,1619.0893299,1619.0893299,1619.0893299,1621.3572655000007,5,2.2644739000006666,5,2.2644739000006666,,,,,,,,sub123_AB,001,2026-02-01_17h40.48.829,recognitionstage,,2025.1.1,59.65981970832583,2026-02-01 17h41.55.693341 +0530,
,,,4,4,0,34,frames\Vid34_BB_T.png,frames\Vid34_L.png,['r'],1,[4.21505789999901],[None],5,1.5811161000001448,,,,,0,4,4,33,1621.3918126999997,,22,Female,Right handed,Normal,,,,,,,,,,,,,,,,,,,,,,,,,,,,,,,,,,,,,,,,1621.3688514999994,1621.3918126999997,1621.3918126999997,1621.3918126999997,1621.3918126999997,1621.3918126999997,1621.3918126999997,1625.6078983999996,['r'],1,[4.21505789999901],[None],1625.6087601,1625.6224110000003,1625.6224110000003,1625.6224110000003,1627.2065497999993,5,1.5811161000001448,5,1.5811161000001448,,,,,,,,sub123_AB,001,2026-02-01_17h40.48.829,recognitionstage,,2025.1.1,59.65981970832583,2026-02-01 17h41.55.693341 +0530,
,,,5,5,0,27,frames\Vid27_BB_T.png,frames\Vid27_L.png,['l'],0,[9.663247200000114],[None],5,2.51496539999971,,,,,0,5,5,26,1627.2241183000006,,22,Female,Right handed,Normal,,,,,,,,,,,,,,,,,,,,,,,,,,,,,,,,,,,,,,,,1627.2160234000003,1627.2241183000006,1627.2241183000006,1627.2241183000006,1627.2241183000006,1627.2241183000006,1627.2241183000006,1636.891189,['l'],0,[9.663247200000114],[None],1636.8920944000001,1636.9059266999993,1636.9059266999993,1636.9059266999993,1639.4235018,5,2.51496539999971,5,2.51496539999971,,,,,,,,sub123_AB,001,2026-02-01_17h40.48.829,recognitionstage,,2025.1.1,59.65981970832583,2026-02-01 17h41.55.693341 +0530,
,,,6,6,0,32,frames\Vid32_EM_T.png,frames\Vid32_L.png,['r'],1,[3.327314000000115],[None],5,0.9156874999989668,,,,,0,6,6,31,1639.4555213999993,,22,Female,Right handed,Normal,,,,,,,,,,,,,,,,,,,,,,,,,,,,,,,,,,,,,,,,1639.4356038000005,1639.4555213999993,1639.4555213999993,1639.4555213999993,1639.4555213999993,1639.4555213999993,1639.4555213999993,1642.7909923000007,['r'],1,[3.327314000000115],[None],1642.7920154999993,1642.8061213,1642.8061213,1642.8061213,1643.7233281999997,5,0.9156874999989668,5,0.9156874999989668,,,,,,,,sub123_AB,001,2026-02-01_17h40.48.829,recognitionstage,,2025.1.1,59.65981970832583,2026-02-01 17h41.55.693341 +0530,
,,,7,7,0,12,frames\Vid12_EM_T.png,frames\Vid12_L.png,['l'],1,[3.312716200000068],[None],5,0.728684699999576,,,,,0,7,7,11,1643.7902971999993,,22,Female,Right handed,Normal,,,,,,,,,,,,,,,,,,,,,,,,,,,,,,,,,,,,,,,,1643.768475499999,1643.7902971999993,1643.7902971999993,1643.7902971999993,1643.7902971999993,1643.7902971999993,1643.7902971999993,1647.1096096,['l'],1,[3.312716200000068],[None],1647.1110626999998,1647.1371877000001,1647.1371877000001,1647.1371877000001,1647.8573639000006,5,0.728684699999576,5,0.728684699999576,,,,,,,,sub123_AB,001,2026-02-01_17h40.48.829,recognitionstage,,2025.1.1,59.65981970832583,2026-02-01 17h41.55.693341 +0530,
,,,8,8,0,24,frames\Vid24_BB_T.png,frames\Vid24_L.png,['l'],1,[3.6190872000006493],[None],5,0.6158185000003868,,,,,0,8,8,23,1647.8918534000004,,22,Female,Right handed,Normal,,,,,,,,,,,,,,,,,,,,,,,,,,,,,,,,,,,,,,,,1647.8729578000002,1647.8918534000004,1647.8918534000004,1647.8918534000004,1647.8918534000004,1647.8918534000004,1647.8918534000004,1651.5243802000005,['l'],1,[3.6190872000006493],[None],1651.525461199999,1651.539533699999,1651.539533699999,1651.539533699999,1652.1565303000007,5,0.6158185000003868,5,0.6158185000003868,,,,,,,,sub123_AB,001,2026-02-01_17h40.48.829,recognitionstage,,2025.1.1,59.65981970832583,2026-02-01 17h41.55.693341 +0530,
,,,9,9,0,8,frames\Vid8_BB_T.png,frames\Vid8_L.png,['l'],1,[6.336321400000088],[None],5,1.0973912999997992,,,,,0,9,9,7,1652.2064341999994,,22,Female,Right handed,Normal,,,,,,,,,,,,,,,,,,,,,,,,,,,,,,,,,,,,,,,,1652.1938805999998,1652.2064341999994,1652.2064341999994,1652.2064341999994,1652.2064341999994,1652.2064341999994,1652.2064341999994,1658.5594122999992,['l'],1,[6.336321400000088],[None],1658.5599898,1658.5725485999992,1658.5725485999992,1658.5725485999992,1659.6736581000005,5,1.0973912999997992,5,1.0973912999997992,,,,,,,,sub123_AB,001,2026-02-01_17h40.48.829,recognitionstage,,2025.1.1,59.65981970832583,2026-02-01 17h41.55.693341 +0530,
,,,10,10,0,35,frames\Vid35_EM_T.png,frames\Vid35_L.png,['l'],1,[2.978068300000814],[None],4,1.71281750000162,,,,,0,10,10,34,1659.7087594999994,,22,Female,Right handed,Normal,,,,,,,,,,,,,,,,,,,,,,,,,,,,,,,,,,,,,,,,1659.6855610000002,1659.7087594999994,1659.7087594999994,1659.7087594999994,1659.7087594999994,1659.7087594999994,1659.7087594999994,1662.6927486999994,['l'],1,[2.978068300000814],[None],1662.6939344999992,1662.7057131000001,1662.7057131000001,1662.7057131000001,1664.423938,4,1.71281750000162,4,1.71281750000162,,,,,,,,sub123_AB,001,2026-02-01_17h40.48.829,recognitionstage,,2025.1.1,59.65981970832583,2026-02-01 17h41.55.693341 +0530,
,,,11,11,0,20,frames\Vid20_EM_T.png,frames\Vid20_L.png,['l'],1,[4.526099799999429],[None],5,1.6825158999999985,,,,,0,11,11,19,1664.440772,,22,Female,Right handed,Normal,,,,,,,,,,,,,,,,,,,,,,,,,,,,,,,,,,,,,,,,1664.4320511999995,1664.440772,1664.440772,1664.440772,1664.440772,1664.440772,1664.440772,1668.9739823,['l'],1,[4.526099799999429],[None],1668.9747083000002,1668.9896312,1668.9896312,1668.9896312,1670.6729477999997,5,1.6825158999999985,5,1.6825158999999985,,,,,,,,sub123_AB,001,2026-02-01_17h40.48.829,recognitionstage,,2025.1.1,59.65981970832583,2026-02-01 17h41.55.693341 +0530,
,,,12,12,0,23,frames\Vid23_EM_T.png,frames\Vid23_L.png,['r'],1,[2.813486799999737],[None],5,1.097772699999041,,,,,0,12,12,22,1670.7053230000001,,22,Female,Right handed,Normal,,,,,,,,,,,,,,,,,,,,,,,,,,,,,,,,,,,,,,,,1670.6873192999992,1670.7053230000001,1670.7053230000001,1670.7053230000001,1670.7053230000001,1670.7053230000001,1670.7053230000001,1673.525349399999,['r'],1,[2.813486799999737],[None],1673.5265617999994,1673.5541009999997,1673.5541009999997,1673.5541009999997,1674.6400451999998,5,1.097772699999041,5,1.097772699999041,,,,,,,,sub123_AB,001,2026-02-01_17h40.48.829,recognitionstage,,2025.1.1,59.65981970832583,2026-02-01 17h41.55.693341 +0530,
,,,13,13,0,10,frames\Vid10_BB_T.png,frames\Vid10_L.png,['r'],1,[4.476481400000921],[None],5,1.1320364999992307,,,,,0,13,13,9,1674.7063307999997,,22,Female,Right handed,Normal,,,,,,,,,,,,,,,,,,,,,,,,,,,,,,,,,,,,,,,,1674.6838119999993,1674.7063307999997,1674.7063307999997,1674.7063307999997,1674.7063307999997,1674.7063307999997,1674.7063307999997,1679.1912147000003,['r'],1,[4.476481400000921],[None],1679.192035,1679.205983599999,1679.205983599999,1679.205983599999,1680.3395122999991,5,1.1320364999992307,5,1.1320364999992307,,,,,,,,sub123_AB,001,2026-02-01_17h40.48.829,recognitionstage,,2025.1.1,59.65981970832583,2026-02-01 17h41.55.693341 +0530,
,,,14,14,0,22,frames\Vid22_EM_T.png,frames\Vid22_L.png,['l'],1,[3.631132099999377],[None],5,0.998987599999964,,,,,0,14,14,21,1680.3756252999992,,22,Female,Right handed,Normal,,,,,,,,,,,,,,,,,,,,,,,,,,,,,,,,,,,,,,,,1680.3561141999999,1680.3756252999992,1680.3756252999992,1680.3756252999992,1680.3756252999992,1680.3756252999992,1680.3756252999992,1684.0074530000002,['l'],1,[3.631132099999377],[None],1684.0083290000002,1684.0226473000002,1684.0226473000002,1684.0226473000002,1685.0237398999998,5,0.998987599999964,5,0.998987599999964,,,,,,,,sub123_AB,001,2026-02-01_17h40.48.829,recognitionstage,,2025.1.1,59.65981970832583,2026-02-01 17h41.55.693341 +0530,
,,,15,15,0,17,frames\Vid17_BB_T.png,frames\Vid17_L.png,['l'],0,[4.294948400000067],[None],5,0.9822705000005953,,,,,0,15,15,16,1685.0558822000003,,22,Female,Right handed,Normal,,,,,,,,,,,,,,,,,,,,,,,,,,,,,,,,,,,,,,,,1685.048376499999,1685.0558822000003,1685.0558822000003,1685.0558822000003,1685.0558822000003,1685.0558822000003,1685.0558822000003,1689.3573309999992,['l'],0,[4.294948400000067],[None],1689.3582399999996,1689.3729108999996,1689.3729108999996,1689.3729108999996,1690.3563620999994,5,0.9822705000005953,5,0.9822705000005953,,,,,,,,sub123_AB,001,2026-02-01_17h40.48.829,recognitionstage,,2025.1.1,59.65981970832583,2026-02-01 17h41.55.693341 +0530,
,,,16,16,0,37,frames\Vid37_BB_T.png,frames\Vid37_L.png,['r'],1,[2.544675400000415],[None],5,1.3139289999999164,,,,,0,16,16,36,1690.3903322000006,,22,Female,Right handed,Normal,,,,,,,,,,,,,,,,,,,,,,,,,,,,,,,,,,,,,,,,1690.3689864000007,1690.3903322000006,1690.3903322000006,1690.3903322000006,1690.3903322000006,1690.3903322000006,1690.3903322000006,1692.9417876999996,['r'],1,[2.544675400000415],[None],1692.9427496999997,1692.9556095999997,1692.9556095999997,1692.9556095999997,1694.2738026000006,5,1.3139289999999164,5,1.3139289999999164,,,,,,,,sub123_AB,001,2026-02-01_17h40.48.829,recognitionstage,,2025.1.1,59.65981970832583,2026-02-01 17h41.55.693341 +0530,
,,,17,17,0,30,frames\Vid30_EM_T.png,frames\Vid30_L.png,['l'],1,[3.7159510999990744],[None],5,0.880047900000136,,,,,0,17,17,29,1694.290873,,22,Female,Right handed,Normal,,,,,,,,,,,,,,,,,,,,,,,,,,,,,,,,,,,,,,,,1694.2833998000006,1694.290873,1694.290873,1694.290873,1694.290873,1694.290873,1694.290873,1698.0085794999995,['l'],1,[3.7159510999990744],[None],1698.0096998999998,1698.022266,1698.022266,1698.022266,1698.907233,5,0.880047900000136,5,0.880047900000136,,,,,,,,sub123_AB,001,2026-02-01_17h40.48.829,recognitionstage,,2025.1.1,59.65981970832583,2026-02-01 17h41.55.693341 +0530,
,,,18,18,0,28,frames\Vid28_EM_T.png,frames\Vid28_L.png,['l'],1,[2.187885000001188],[None],5,1.3312972000003356,,,,,0,18,18,27,1698.9388815999991,,22,Female,Right handed,Normal,,,,,,,,,,,,,,,,,,,,,,,,,,,,,,,,,,,,,,,,1698.9190137000005,1698.9388815999991,1698.9388815999991,1698.9388815999991,1698.9388815999991,1698.9388815999991,1698.9388815999991,1701.1410763000003,['l'],1,[2.187885000001188],[None],1701.1420237000002,1701.1560141999998,1701.1560141999998,1701.1560141999998,1702.4899404999996,5,1.3312972000003356,5,1.3312972000003356,,,,,,,,sub123_AB,001,2026-02-01_17h40.48.829,recognitionstage,,2025.1.1,59.65981970832583,2026-02-01 17h41.55.693341 +0530,
,,,19,19,0,2,frames\Vid2_BB_T.png,frames\Vid2_L.png,['r'],1,[5.739054300000134],[None],5,0.998186100001476,,,,,0,19,19,1,1702.5396459000003,,22,Female,Right handed,Normal,,,,,,,,,,,,,,,,,,,,,,,,,,,,,,,,,,,,,,,,1702.5299947999993,1702.5396459000003,1702.5396459000003,1702.5396459000003,1702.5396459000003,1702.5396459000003,1702.5396459000003,1708.2914053999993,['r'],1,[5.739054300000134],[None],1708.2922627000007,1708.3057214,1708.3057214,1708.3057214,1709.3067062999999,5,0.998186100001476,5,0.998186100001476,,,,,,,,sub123_AB,001,2026-02-01_17h40.48.829,recognitionstage,,2025.1.1,59.65981970832583,2026-02-01 17h41.55.693341 +0530,
,,,20,20,0,40,frames\Vid40_EM_T.png,frames\Vid40_L.png,['l'],1,[3.5673879999994824],[None],5,1.4168707999997423,,,,,0,20,20,39,1709.3273962999992,,22,Female,Right handed,Normal,,,,,,,,,,,,,,,,,,,,,,,,,,,,,,,,,,,,,,,,1709.3156866999998,1709.3273962999992,1709.3273962999992,1709.3273962999992,1709.3273962999992,1709.3273962999992,1709.3273962999992,1712.906909199999,['l'],1,[3.5673879999994824],[None],1712.907788299999,1712.9225650999997,1712.9225650999997,1712.9225650999997,1714.3398942999993,5,1.4168707999997423,5,1.4168707999997423,,,,,,,,sub123_AB,001,2026-02-01_17h40.48.829,recognitionstage,,2025.1.1,59.65981970832583,2026-02-01 17h41.55.693341 +0530,
,,,21,21,0,9,frames\Vid9_EM_T.png,frames\Vid9_L.png,['r'],1,[6.273458300000129],[None],5,1.6647014999998646,,,,,0,21,21,8,1714.3893444999994,,22,Female,Right handed,Normal,,,,,,,,,,,,,,,,,,,,,,,,,,,,,,,,,,,,,,,,1714.3755199000007,1714.3893444999994,1714.3893444999994,1714.3893444999994,1714.3893444999994,1714.3893444999994,1714.3893444999994,1720.674850899999,['r'],1,[6.273458300000129],[None],1720.675710399999,1720.6889811,1720.6889811,1720.6889811,1722.3566410000003,5,1.6647014999998646,5,1.6647014999998646,,,,,,,,sub123_AB,001,2026-02-01_17h40.48.829,recognitionstage,,2025.1.1,59.65981970832583,2026-02-01 17h41.55.693341 +0530,
,,,22,22,0,38,frames\Vid38_EM_T.png,frames\Vid38_L.png,['l'],0,[12.237912000000506],[None],1,2.4311402000003,,,,,0,22,22,37,1722.3770812000002,,22,Female,Right handed,Normal,,,,,,,,,,,,,,,,,,,,,,,,,,,,,,,,,,,,,,,,1722.3666095999997,1722.3770812000002,1722.3770812000002,1722.3770812000002,1722.3770812000002,1722.3770812000002,1722.3770812000002,1734.6244425000004,['l'],0,[12.237912000000506],[None],1734.6255127999993,1734.6392847000006,1734.6392847000006,1734.6392847000006,1737.0735220000006,1,2.4311402000003,1,2.4311402000003,,,,,,,,sub123_AB,001,2026-02-01_17h40.48.829,recognitionstage,,2025.1.1,59.65981970832583,2026-02-01 17h41.55.693341 +0530,
,,,23,23,0,7,frames\Vid7_EM_T.png,frames\Vid7_L.png,['l'],1,[3.923913500000708],[None],5,1.4300762000002578,,,,,0,23,23,6,1737.1228773999992,,22,Female,Right handed,Normal,,,,,,,,,,,,,,,,,,,,,,,,,,,,,,,,,,,,,,,,1737.1159067999997,1737.1228773999992,1737.1228773999992,1737.1228773999992,1737.1228773999992,1737.1228773999992,1737.1228773999992,1741.0584851999993,['l'],1,[3.923913500000708],[None],1741.0599774999991,1741.0725884999993,1741.0725884999993,1741.0725884999993,1742.5063541,5,1.4300762000002578,5,1.4300762000002578,,,,,,,,sub123_AB,001,2026-02-01_17h40.48.829,recognitionstage,,2025.1.1,59.65981970832583,2026-02-01 17h41.55.693341 +0530,
,,,24,24,0,26,frames\Vid26_EM_T.png,frames\Vid26_L.png,['l'],1,[10.201263099999778],[None],5,2.565780099999756,,,,,0,24,24,25,1742.5413694,,22,Female,Right handed,Normal,,,,,,,,,,,,,,,,,,,,,,,,,,,,,,,,,,,,,,,,1742.5199618000006,1742.5413694,1742.5413694,1742.5413694,1742.5413694,1742.5413694,1742.5413694,1752.7576253999996,['l'],1,[10.201263099999778],[None],1752.7582628,1752.7722849000002,1752.7722849000002,1752.7722849000002,1755.3397466999995,5,2.565780099999756,5,2.565780099999756,,,,,,,,sub123_AB,001,2026-02-01_17h40.48.829,recognitionstage,,2025.1.1,59.65981970832583,2026-02-01 17h41.55.693341 +0530,
,,,25,25,0,39,frames\Vid39_BB_T.png,frames\Vid39_L.png,['l'],1,[8.76090429999931],[None],3,2.1304955999985395,,,,,0,25,25,38,1755.3581034,,22,Female,Right handed,Normal,,,,,,,,,,,,,,,,,,,,,,,,,,,,,,,,,,,,,,,,1755.3479110999997,1755.3581034,1755.3581034,1755.3581034,1755.3581034,1755.3581034,1755.3581034,1764.1259596,['l'],1,[8.76090429999931],[None],1764.1271887000003,1764.1388478999997,1764.1388478999997,1764.1388478999997,1766.2731308000002,3,2.1304955999985395,3,2.1304955999985395,,,,,,,,sub123_AB,001,2026-02-01_17h40.48.829,recognitionstage,,2025.1.1,59.65981970832583,2026-02-01 17h41.55.693341 +0530,
,,,26,26,0,4,frames\Vid4_EM_T.png,frames\Vid4_L.png,['r'],1,[4.651479199999812],[None],5,1.6805361999995512,,,,,0,26,26,3,1766.3394726999995,,22,Female,Right handed,Normal,,,,,,,,,,,,,,,,,,,,,,,,,,,,,,,,,,,,,,,,1766.318877399999,1766.3394726999995,1766.3394726999995,1766.3394726999995,1766.3394726999995,1766.3394726999995,1766.3394726999995,1770.9914410000001,['r'],1,[4.651479199999812],[None],1770.9927525000003,1771.0054911000007,1771.0054911000007,1771.0054911000007,1772.6898304999995,5,1.6805361999995512,5,1.6805361999995512,,,,,,,,sub123_AB,001,2026-02-01_17h40.48.829,recognitionstage,,2025.1.1,59.65981970832583,2026-02-01 17h41.55.693341 +0530,
,,,27,27,0,3,frames\Vid3_BB_T.png,frames\Vid3_L.png,['r'],1,[8.29627419999997],[None],5,1.2975701999985176,,,,,0,27,27,2,1772.7424960999997,,22,Female,Right handed,Normal,,,,,,,,,,,,,,,,,,,,,,,,,,,,,,,,,,,,,,,,1772.7284264999998,1772.7424960999997,1772.7424960999997,1772.7424960999997,1772.7424960999997,1772.7424960999997,1772.7424960999997,1781.0413697999993,['r'],1,[8.29627419999997],[None],1781.042582099999,1781.0561135999997,1781.0561135999997,1781.0561135999997,1782.356439199999,5,1.2975701999985176,5,1.2975701999985176,,,,,,,,sub123_AB,001,2026-02-01_17h40.48.829,recognitionstage,,2025.1.1,59.65981970832583,2026-02-01 17h41.55.693341 +0530,
,,,28,28,0,15,frames\Vid15_BB_T.png,frames\Vid15_L.png,['l'],0,[7.493598299999576],[None],5,0.9979594999986148,,,,,0,28,28,14,1782.4252627000005,,22,Female,Right handed,Normal,,,,,,,,,,,,,,,,,,,,,,,,,,,,,,,,,,,,,,,,1782.4040315000002,1782.4252627000005,1782.4252627000005,1782.4252627000005,1782.4252627000005,1782.4252627000005,1782.4252627000005,1789.9248444999994,['l'],0,[7.493598299999576],[None],1789.9259495000006,1789.9543923,1789.9543923,1789.9543923,1790.9402217000006,5,0.9979594999986148,5,0.9979594999986148,,,,,,,,sub123_AB,001,2026-02-01_17h40.48.829,recognitionstage,,2025.1.1,59.65981970832583,2026-02-01 17h41.55.693341 +0530,
,,,29,29,0,14,frames\Vid14_BB_T.png,frames\Vid14_L.png,['l'],1,[4.64590169999974],[None],5,1.793712599999708,,,,,0,29,29,13,1791.009011099999,,22,Female,Right handed,Normal,,,,,,,,,,,,,,,,,,,,,,,,,,,,,,,,,,,,,,,,1790.9872082000002,1791.009011099999,1791.009011099999,1791.009011099999,1791.009011099999,1791.009011099999,1791.009011099999,1795.660819499999,['l'],1,[4.64590169999974],[None],1795.662929099999,1795.6872561,1795.6872561,1795.6872561,1797.4739007999997,5,1.793712599999708,5,1.793712599999708,,,,,,,,sub123_AB,001,2026-02-01_17h40.48.829,recognitionstage,,2025.1.1,59.65981970832583,2026-02-01 17h41.55.693341 +0530,
,,,30,30,0,25,frames\Vid25_BB_T.png,frames\Vid25_L.png,['l'],1,[2.0106673999998748],[None],5,1.4969481999996788,,,,,0,30,30,24,1797.508291,,22,Female,Right handed,Normal,,,,,,,,,,,,,,,,,,,,,,,,,,,,,,,,,,,,,,,,1797.4845397999998,1797.508291,1797.508291,1797.508291,1797.508291,1797.508291,1797.508291,1799.5257626000002,['l'],1,[2.0106673999998748],[None],1799.5270540000001,1799.5387654000006,1799.5387654000006,1799.5387654000006,1801.0399452000001,5,1.4969481999996788,5,1.4969481999996788,,,,,,,,sub123_AB,001,2026-02-01_17h40.48.829,recognitionstage,,2025.1.1,59.65981970832583,2026-02-01 17h41.55.693341 +0530,
,,,31,31,0,33,frames\Vid33_BB_T.png,frames\Vid33_L.png,['r'],1,[4.956735800000388],[None],5,1.1652623999998468,,,,,0,31,31,32,1801.0579237999991,,22,Female,Right handed,Normal,,,,,,,,,,,,,,,,,,,,,,,,,,,,,,,,,,,,,,,,1801.0496392999994,1801.0579237999991,1801.0579237999991,1801.0579237999991,1801.0579237999991,1801.0579237999991,1801.0579237999991,1806.0241853999996,['r'],1,[4.956735800000388],[None],1806.0249287000006,1806.0388643000006,1806.0388643000006,1806.0388643000006,1807.2059370999996,5,1.1652623999998468,5,1.1652623999998468,,,,,,,,sub123_AB,001,2026-02-01_17h40.48.829,recognitionstage,,2025.1.1,59.65981970832583,2026-02-01 17h41.55.693341 +0530,
,,,32,32,0,6,frames\Vid6_BB_T.png,frames\Vid6_L.png,['l'],1,[2.9584844000000885],[None],5,0.8645469000002777,,,,,0,32,32,5,1807.2562846,,22,Female,Right handed,Normal,,,,,,,,,,,,,,,,,,,,,,,,,,,,,,,,,,,,,,,,1807.2493448999994,1807.2562846,1807.2562846,1807.2562846,1807.2562846,1807.2562846,1807.2562846,1810.2245662000005,['l'],1,[2.9584844000000885],[None],1810.2256548999994,1810.239064899999,1810.239064899999,1810.239064899999,1811.1066185,5,0.8645469000002777,5,0.8645469000002777,,,,,,,,sub123_AB,001,2026-02-01_17h40.48.829,recognitionstage,,2025.1.1,59.65981970832583,2026-02-01 17h41.55.693341 +0530,
,,,33,33,0,21,frames\Vid21_BB_T.png,frames\Vid21_L.png,['r'],1,[3.5765398999992613],[None],5,1.3469185000012658,,,,,0,33,33,20,1811.1422000000002,,22,Female,Right handed,Normal,,,,,,,,,,,,,,,,,,,,,,,,,,,,,,,,,,,,,,,,1811.1203618,1811.1422000000002,1811.1422000000002,1811.1422000000002,1811.1422000000002,1811.1422000000002,1811.1422000000002,1814.7249763,['r'],1,[3.5765398999992613],[None],1814.7262606999993,1814.7387638,1814.7387638,1814.7387638,1816.0902459999998,5,1.3469185000012658,5,1.3469185000012658,,,,,,,,sub123_AB,001,2026-02-01_17h40.48.829,recognitionstage,,2025.1.1,59.65981970832583,2026-02-01 17h41.55.693341 +0530,
,,,34,34,0,29,frames\Vid29_BB_T.png,frames\Vid29_L.png,['l'],1,[3.2684396999993623],[None],3,1.7813133999989077,,,,,0,34,34,28,1816.1223654999994,,22,Female,Right handed,Normal,,,,,,,,,,,,,,,,,,,,,,,,,,,,,,,,,,,,,,,,1816.1013999000006,1816.1223654999994,1816.1223654999994,1816.1223654999994,1816.1223654999994,1816.1223654999994,1816.1223654999994,1819.391707499999,['l'],1,[3.2684396999993623],[None],1819.3928833999998,1819.4204547999998,1819.4204547999998,1819.4204547999998,1821.1894584000001,3,1.7813133999989077,3,1.7813133999989077,,,,,,,,sub123_AB,001,2026-02-01_17h40.48.829,recognitionstage,,2025.1.1,59.65981970832583,2026-02-01 17h41.55.693341 +0530,
,,,35,35,0,19,frames\Vid19_BB_T.png,frames\Vid19_L.png,['l'],0,[3.392460500001107],[None],5,0.9481477000008454,,,,,0,35,35,18,1821.2222999999994,,22,Female,Right handed,Normal,,,,,,,,,,,,,,,,,,,,,,,,,,,,,,,,,,,,,,,,1821.2002536,1821.2222999999994,1821.2222999999994,1821.2222999999994,1821.2222999999994,1821.2222999999994,1821.2222999999994,1824.624567499999,['l'],0,[3.392460500001107],[None],1824.6256496000005,1824.6392514,1824.6392514,1824.6392514,1825.589495799999,5,0.9481477000008454,5,0.9481477000008454,,,,,,,,sub123_AB,001,2026-02-01_17h40.48.829,recognitionstage,,2025.1.1,59.65981970832583,2026-02-01 17h41.55.693341 +0530,
,,,36,36,0,31,frames\Vid31_EM_T.png,frames\Vid31_L.png,['l'],1,[2.5909642999995413],[None],4,1.0133058999999776,,,,,0,36,36,30,1825.6079391000003,,22,Female,Right handed,Normal,,,,,,,,,,,,,,,,,,,,,,,,,,,,,,,,,,,,,,,,1825.5971145000003,1825.6079391000003,1825.6079391000003,1825.6079391000003,1825.6079391000003,1825.6079391000003,1825.6079391000003,1828.2087364,['l'],1,[2.5909642999995413],[None],1828.2098946999995,1828.2222134999993,1828.2222134999993,1828.2222134999993,1829.2397769,4,1.0133058999999776,4,1.0133058999999776,,,,,,,,sub123_AB,001,2026-02-01_17h40.48.829,recognitionstage,,2025.1.1,59.65981970832583,2026-02-01 17h41.55.693341 +0530,
,,,37,37,0,1,frames\Vid1_EM_T.png,frames\Vid1_L.png,['l'],1,[1.8205988999998226],[None],5,1.5639952999990783,,,,,0,37,37,0,1829.306169899999,,22,Female,Right handed,Normal,,,,,,,,,,,,,,,,,,,,,,,,,,,,,,,,,,,,,,,,1829.2870124,1829.306169899999,1829.306169899999,1829.306169899999,1829.306169899999,1829.306169899999,1829.306169899999,1831.1411009000003,['l'],1,[1.8205988999998226],[None],1831.1423830999993,1831.1558605999999,1831.1558605999999,1831.1558605999999,1832.7231348999994,5,1.5639952999990783,5,1.5639952999990783,,,,,,,,sub123_AB,001,2026-02-01_17h40.48.829,recognitionstage,,2025.1.1,59.65981970832583,2026-02-01 17h41.55.693341 +0530,
,,,38,38,0,11,frames\Vid11_EM_T.png,frames\Vid11_L.png,['r'],1,[4.701992500000415],[None],5,1.1976991999999882,,,,,0,38,38,10,1832.7926750000006,,22,Female,Right handed,Normal,,,,,,,,,,,,,,,,,,,,,,,,,,,,,,,,,,,,,,,,1832.767517799999,1832.7926750000006,1832.7926750000006,1832.7926750000006,1832.7926750000006,1832.7926750000006,1832.7926750000006,1837.5083228000003,['r'],1,[4.701992500000415],[None],1837.5092891999993,1837.5223473000005,1837.5223473000005,1837.5223473000005,1838.7228672,5,1.1976991999999882,5,1.1976991999999882,,,,,,,,sub123_AB,001,2026-02-01_17h40.48.829,recognitionstage,,2025.1.1,59.65981970832583,2026-02-01 17h41.55.693341 +0530,
,,,39,39,0,18,frames\Vid18_EM_T.png,frames\Vid18_L.png,['r'],1,[9.224886699999843],[None],1,1.4154225000002043,,,,,0,39,39,17,1838.7578670999992,,22,Female,Right handed,Normal,,,,,,,,,,,,,,,,,,,,,,,,,,,,,,,,,,,,,,,,1838.7335380999994,1838.7578670999992,1838.7578670999992,1838.7578670999992,1838.7578670999992,1838.7578670999992,1838.7578670999992,1847.9909718,['r'],1,[9.224886699999843],[None],1847.9922616999993,1848.0058623999994,1848.0058623999994,1848.0058623999994,1849.4225939000007,1,1.4154225000002043,1,1.4154225000002043,,,,,,,,sub123_AB,001,2026-02-01_17h40.48.829,recognitionstage,,2025.1.1,59.65981970832583,2026-02-01 17h41.55.693341 +0530,
,,,,,,,,,,,,,,,,,,,,,,,,,22,Female,Right handed,Normal,,,,,,,,,,,,,,,,,,,,,,,,,,,,,,,,,,,,,,,,,,,,,,,,,,,,,,,,,,,,,1849.4226720000006,1849.4396529000005,1849.4396529000005,1852.6754433000006,space,3.231220800000301,None,sub123_AB,001,2026-02-01_17h40.48.829,recognitionstage,,2025.1.1,59.65981970832583,2026-02-01 17h41.55.693341 +0530,
