path,duration,is_repeat,thisN,thisTrialN,thisRepN,movie_id,target_img,lure_img,resp.keys,resp.corr,resp.rt,resp.duration,conf_radio.response,conf_radio.rt,movie.thisRepN,movie.thisTrialN,movie.thisN,movie.thisIndex,recogloop.thisRepN,recogloop.thisTrialN,recogloop.thisN,recogloop.thisIndex,thisRow.t,notes,age,gender,handedness,vision,caffeine_2h,alcohol_smoke_12h,demographics.started,demographics.stopped,Instructions.started,text1.started,key_resp.started,Instructions.stopped,key_resp.keys,key_resp.rt,key_resp.duration,instruction_2.started,text2.started,key_resp_2.started,instruction_2.stopped,key_resp_2.keys,key_resp_2.rt,key_resp_2.duration,Videos.started,movie_2.started,vigilance_resp.started,movie_2.stopped,Videos.stopped,movie.vigilance_resp.keys,vigilance_pressed,vigilance_correct,ISI.started,text.started,ISI.stopped,text.stopped,recognition.started,text_4.started,key_resp_3.started,recognition.stopped,key_resp_3.keys,key_resp_3.rt,key_resp_3.duration,recognition_task.started,leftimage.started,rightimage.started,resp.started,frames_question.started,right_label.started,left_label.started,recognition_task.stopped,recogloop.resp.keys,recogloop.resp.corr,recogloop.resp.rt,recogloop.resp.duration,confidence.started,conf_text.started,conf_radio.started,conf_label.started,confidence.stopped,recogloop.conf_radio.response,recogloop.conf_radio.rt,confidence,confidence_rt,thank_you.started,text_6.started,key_resp_4.started,thank_you.stopped,key_resp_4.keys,key_resp_4.rt,key_resp_4.duration,participant,session,date,expName,expVersion,psychopyVersion,frameRate,expStart,...103
,,,,,,,,,,,,,,,,,,,,,,,,,22,Male,Right handed,Corrected to normal,Caffeine consumed in last 2 hours?,Alcohol or smoking in last 12 hours?,0.008577400003559887,0.010922300018137321,,,,,,,,,,,,,,,,,,,,,,,,,,,,,,,,,,,,,,,,,,,,,,,,,,,,,,,,,,,,,,sub161_NB,001,2026-02-03_19h35.16.240,recognitionstage,,2025.1.1,60.04805045584317,2026-02-03 19h35.54.703732 +0530,
,,,,,,,,,,,,,,,,,,,,,,,,,22,Male,Right handed,Corrected to normal,,,,,0.010945300018647686,0.027170600020326674,0.027170600020326674,8.563164999999572,space,8.529106500005582,None,,,,,,,,,,,,,,,,,,,,,,,,,,,,,,,,,,,,,,,,,,,,,,,,,,,,,,,sub161_NB,001,2026-02-03_19h35.16.240,recognitionstage,,2025.1.1,60.04805045584317,2026-02-03 19h35.54.703732 +0530,
,,,,,,,,,,,,,,,,,,,,,,,,,22,Male,Right handed,Corrected to normal,,,,,,,,,,,,8.563216400012607,8.578181500022765,8.578181500022765,17.445160100003704,space,8.850010599999223,None,,,,,,,,,,,,,,,,,,,,,,,,,,,,,,,,,,,,,,,,,,,,,,,,sub161_NB,001,2026-02-03_19h35.16.240,recognitionstage,,2025.1.1,60.04805045584317,2026-02-03 19h35.54.703732 +0530,
Trimmed_videos/natural_36.mp4,18,0,44,44,0,,,,,,,,,,0,44,44,39,,,,,1678.5095112000126,,22,Male,Right handed,Corrected to normal,,,,,,,,,,,,,,,,,,,1678.4636969000276,1678.5095112000126,1678.5095112000126,1697.4411448000174,1697.2981216000044,None,0,1,1697.4328627000214,1697.4411448000174,1699.9287977000058,1699.9438455000054,1699.9288759000192,1699.9438455000054,1699.9438455000054,1722.2108533000282,space,22.251748700015014,None,,,,,,,,,,,,,,,,,,,,,,,,,,,,,sub161_NB,001,2026-02-03_19h35.16.240,recognitionstage,,2025.1.1,60.04805045584317,2026-02-03 19h35.54.703732 +0530,
,,,0,0,0,28,frames\Vid28_EM_T.png,frames\Vid28_L.png,['r'],1,[7.882005899999058],[None],4,7.331412900006399,,,,,0,0,0,27,1722.2416153000086,,22,Male,Right handed,Corrected to normal,,,,,,,,,,,,,,,,,,,,,,,,,,,,,,,,,,,,,,1722.227363300015,1722.2416153000086,1722.2416153000086,1722.2416153000086,1722.2416153000086,1722.2416153000086,1722.2416153000086,1730.1286991000234,['r'],1,[7.882005899999058],[None],1730.1296618000197,1730.1427761000232,1730.1427761000232,1730.1427761000232,1737.4767108000233,4,7.331412900006399,4,7.331412900006399,,,,,,,,sub161_NB,001,2026-02-03_19h35.16.240,recognitionstage,,2025.1.1,60.04805045584317,2026-02-03 19h35.54.703732 +0530,
,,,1,1,0,37,frames\Vid37_BB_T.png,frames\Vid37_L.png,['r'],1,[4.166721499990672],[None],5,2.231862299988279,,,,,0,1,1,36,1737.5086362000147,,22,Male,Right handed,Corrected to normal,,,,,,,,,,,,,,,,,,,,,,,,,,,,,,,,,,,,,,1737.4934321000183,1737.5086362000147,1737.5086362000147,1737.5086362000147,1737.5086362000147,1737.5086362000147,1737.5086362000147,1741.6778142000258,['r'],1,[4.166721499990672],[None],1741.6786830000055,1741.6931011000124,1741.6931011000124,1741.6931011000124,1743.927756900026,5,2.231862299988279,5,2.231862299988279,,,,,,,,sub161_NB,001,2026-02-03_19h35.16.240,recognitionstage,,2025.1.1,60.04805045584317,2026-02-03 19h35.54.703732 +0530,
,,,2,2,0,7,frames\Vid7_EM_T.png,frames\Vid7_L.png,['r'],1,[4.7785740999970585],[None],5,1.9984843999845907,,,,,0,2,2,6,1743.9769230000093,,22,Male,Right handed,Corrected to normal,,,,,,,,,,,,,,,,,,,,,,,,,,,,,,,,,,,,,,1743.9706344000006,1743.9769230000093,1743.9769230000093,1743.9769230000093,1743.9769230000093,1743.9769230000093,1743.9769230000093,1748.7617846000066,['r'],1,[4.7785740999970585],[None],1748.7626255000068,1748.776095600013,1748.776095600013,1748.776095600013,1750.7766814000206,5,1.9984843999845907,5,1.9984843999845907,,,,,,,,sub161_NB,001,2026-02-03_19h35.16.240,recognitionstage,,2025.1.1,60.04805045584317,2026-02-03 19h35.54.703732 +0530,
,,,3,3,0,30,frames\Vid30_EM_T.png,frames\Vid30_L.png,['r'],1,[5.09907190001104],[None],5,1.6483490999962669,,,,,0,3,3,29,1750.8083006000088,,22,Male,Right handed,Corrected to normal,,,,,,,,,,,,,,,,,,,,,,,,,,,,,,,,,,,,,,1750.7967604000005,1750.8083006000088,1750.8083006000088,1750.8083006000088,1750.8083006000088,1750.8083006000088,1750.8083006000088,1755.911598400009,['r'],1,[5.09907190001104],[None],1755.9125732000102,1755.941367500025,1755.941367500025,1755.941367500025,1757.5769893000252,5,1.6483490999962669,5,1.6483490999962669,,,,,,,,sub161_NB,001,2026-02-03_19h35.16.240,recognitionstage,,2025.1.1,60.04805045584317,2026-02-03 19h35.54.703732 +0530,
,,,4,4,0,1,frames\Vid1_EM_T.png,frames\Vid1_L.png,['l'],0,[14.32785370000056],[None],3,2.1815678999992087,,,,,0,4,4,0,1757.643592700013,,22,Male,Right handed,Corrected to normal,,,,,,,,,,,,,,,,,,,,,,,,,,,,,,,,,,,,,,1757.6238570000278,1757.643592700013,1757.643592700013,1757.643592700013,1757.643592700013,1757.643592700013,1757.643592700013,1771.9782288999995,['l'],0,[14.32785370000056],[None],1771.9791413000203,1771.9932708000124,1771.9932708000124,1771.9932708000124,1774.177243800019,3,2.1815678999992087,3,2.1815678999992087,,,,,,,,sub161_NB,001,2026-02-03_19h35.16.240,recognitionstage,,2025.1.1,60.04805045584317,2026-02-03 19h35.54.703732 +0530,
,,,5,5,0,10,frames\Vid10_BB_T.png,frames\Vid10_L.png,['l'],1,[8.31660120000015],[None],2,2.6988531000097282,,,,,0,5,5,9,1774.2466706000268,,22,Male,Right handed,Corrected to normal,,,,,,,,,,,,,,,,,,,,,,,,,,,,,,,,,,,,,,1774.2222081000218,1774.2466706000268,1774.2466706000268,1774.2466706000268,1774.2466706000268,1774.2466706000268,1774.2466706000268,1782.578170600027,['l'],1,[8.31660120000015],[None],1782.579197300016,1782.593086000008,1782.593086000008,1782.593086000008,1785.2942346000054,2,2.6988531000097282,2,2.6988531000097282,,,,,,,,sub161_NB,001,2026-02-03_19h35.16.240,recognitionstage,,2025.1.1,60.04805045584317,2026-02-03 19h35.54.703732 +0530,
,,,6,6,0,15,frames\Vid15_BB_T.png,frames\Vid15_L.png,['r'],1,[3.127994200011017],[None],5,1.632139900000766,,,,,0,6,6,14,1785.363438100001,,22,Male,Right handed,Corrected to normal,,,,,,,,,,,,,,,,,,,,,,,,,,,,,,,,,,,,,,1785.3440688000119,1785.363438100001,1785.363438100001,1785.363438100001,1785.363438100001,1785.363438100001,1785.363438100001,1788.4947110000066,['r'],1,[3.127994200011017],[None],1788.4956508000032,1788.509891900001,1788.509891900001,1788.509891900001,1790.1436770000146,5,1.632139900000766,5,1.632139900000766,,,,,,,,sub161_NB,001,2026-02-03_19h35.16.240,recognitionstage,,2025.1.1,60.04805045584317,2026-02-03 19h35.54.703732 +0530,
,,,7,7,0,27,frames\Vid27_BB_T.png,frames\Vid27_L.png,['r'],1,[2.9756587999872863],[None],5,2.047905199986417,,,,,0,7,7,26,1790.1639534000133,,22,Male,Right handed,Corrected to normal,,,,,,,,,,,,,,,,,,,,,,,,,,,,,,,,,,,,,,1790.1520206000132,1790.1639534000133,1790.1639534000133,1790.1639534000133,1790.1639534000133,1790.1639534000133,1790.1639534000133,1793.1456874000141,['r'],1,[2.9756587999872863],[None],1793.146722800011,1793.1748774000152,1793.1748774000152,1793.1748774000152,1795.210544200003,5,2.047905199986417,5,2.047905199986417,,,,,,,,sub161_NB,001,2026-02-03_19h35.16.240,recognitionstage,,2025.1.1,60.04805045584317,2026-02-03 19h35.54.703732 +0530,
,,,8,8,0,29,frames\Vid29_BB_T.png,frames\Vid29_L.png,['l'],1,[3.0010049999982584],[None],5,2.164221799990628,,,,,0,8,8,28,1795.242627300002,,22,Male,Right handed,Corrected to normal,,,,,,,,,,,,,,,,,,,,,,,,,,,,,,,,,,,,,,1795.2208468000172,1795.242627300002,1795.242627300002,1795.242627300002,1795.242627300002,1795.242627300002,1795.242627300002,1798.2454580000194,['l'],1,[3.0010049999982584],[None],1798.2462875000201,1798.2603701000044,1798.2603701000044,1798.2603701000044,1800.4276155000261,5,2.164221799990628,5,2.164221799990628,,,,,,,,sub161_NB,001,2026-02-03_19h35.16.240,recognitionstage,,2025.1.1,60.04805045584317,2026-02-03 19h35.54.703732 +0530,
,,,9,9,0,5,frames\Vid5_EM_T.png,frames\Vid5_L.png,['l'],1,[3.014762500009965],[None],5,1.6635421999963,,,,,0,9,9,4,1800.476721300016,,22,Male,Right handed,Corrected to normal,,,,,,,,,,,,,,,,,,,,,,,,,,,,,,,,,,,,,,1800.4580535000132,1800.476721300016,1800.476721300016,1800.476721300016,1800.476721300016,1800.476721300016,1800.476721300016,1803.4962201000017,['l'],1,[3.014762500009965],[None],1803.497320000024,1803.50955420002,1803.50955420002,1803.50955420002,1805.1765820000146,5,1.6635421999963,5,1.6635421999963,,,,,,,,sub161_NB,001,2026-02-03_19h35.16.240,recognitionstage,,2025.1.1,60.04805045584317,2026-02-03 19h35.54.703732 +0530,
,,,10,10,0,4,frames\Vid4_EM_T.png,frames\Vid4_L.png,['r'],1,[10.38224929998978],[None],4,1.8151093000196852,,,,,0,10,10,3,1805.2291318000061,,22,Male,Right handed,Corrected to normal,,,,,,,,,,,,,,,,,,,,,,,,,,,,,,,,,,,,,,1805.2203950000112,1805.2291318000061,1805.2291318000061,1805.2291318000061,1805.2291318000061,1805.2291318000061,1805.2291318000061,1815.628090400016,['r'],1,[10.38224929998978],[None],1815.6290344000154,1815.643690900004,1815.643690900004,1815.643690900004,1817.4606849000265,4,1.8151093000196852,4,1.8151093000196852,,,,,,,,sub161_NB,001,2026-02-03_19h35.16.240,recognitionstage,,2025.1.1,60.04805045584317,2026-02-03 19h35.54.703732 +0530,
,,,11,11,0,12,frames\Vid12_EM_T.png,frames\Vid12_L.png,['r'],1,[8.769736099988222],[None],2,1.8972157000098377,,,,,0,11,11,11,1817.5297167000244,,22,Male,Right handed,Corrected to normal,,,,,,,,,,,,,,,,,,,,,,,,,,,,,,,,,,,,,,1817.5051979000273,1817.5297167000244,1817.5297167000244,1817.5297167000244,1817.5297167000244,1817.5297167000244,1817.5297167000244,1826.3128171999997,['r'],1,[8.769736099988222],[None],1826.3137469000067,1826.3261280000152,1826.3261280000152,1826.3261280000152,1828.226590300008,2,1.8972157000098377,2,1.8972157000098377,,,,,,,,sub161_NB,001,2026-02-03_19h35.16.240,recognitionstage,,2025.1.1,60.04805045584317,2026-02-03 19h35.54.703732 +0530,
,,,12,12,0,6,frames\Vid6_BB_T.png,frames\Vid6_L.png,['r'],1,[6.731143300014082],[None],5,1.7982100000081118,,,,,0,12,12,5,1828.2964106000145,,22,Male,Right handed,Corrected to normal,,,,,,,,,,,,,,,,,,,,,,,,,,,,,,,,,,,,,,1828.2706777999992,1828.2964106000145,1828.2964106000145,1828.2964106000145,1828.2964106000145,1828.2964106000145,1828.2964106000145,1835.0451651000185,['r'],1,[6.731143300014082],[None],1835.0460198000073,1835.0593456000206,1835.0593456000206,1835.0593456000206,1836.8601789000095,5,1.7982100000081118,5,1.7982100000081118,,,,,,,,sub161_NB,001,2026-02-03_19h35.16.240,recognitionstage,,2025.1.1,60.04805045584317,2026-02-03 19h35.54.703732 +0530,
,,,13,13,0,33,frames\Vid33_BB_T.png,frames\Vid33_L.png,['l'],1,[4.329789600014919],[None],5,1.5644676000229083,,,,,0,13,13,32,1836.8815677000093,,22,Male,Right handed,Corrected to normal,,,,,,,,,,,,,,,,,,,,,,,,,,,,,,,,,,,,,,1836.8688524000172,1836.8815677000093,1836.8815677000093,1836.8815677000093,1836.8815677000093,1836.8815677000093,1836.8815677000093,1841.22831950002,['l'],1,[4.329789600014919],[None],1841.2295984000084,1841.2430593000026,1841.2430593000026,1841.2430593000026,1842.810298300028,5,1.5644676000229083,5,1.5644676000229083,,,,,,,,sub161_NB,001,2026-02-03_19h35.16.240,recognitionstage,,2025.1.1,60.04805045584317,2026-02-03 19h35.54.703732 +0530,
,,,14,14,0,40,frames\Vid40_EM_T.png,frames\Vid40_L.png,['r'],1,[5.631742400000803],[None],5,2.6154678000020795,,,,,0,14,14,39,1842.8276418000169,,22,Male,Right handed,Corrected to normal,,,,,,,,,,,,,,,,,,,,,,,,,,,,,,,,,,,,,,1842.8175085000112,1842.8276418000169,1842.8276418000169,1842.8276418000169,1842.8276418000169,1842.8276418000169,1842.8276418000169,1848.4615658000112,['r'],1,[5.631742400000803],[None],1848.4624956000189,1848.4765354000265,1848.4765354000265,1848.4765354000265,1851.0933938000235,5,2.6154678000020795,5,2.6154678000020795,,,,,,,,sub161_NB,001,2026-02-03_19h35.16.240,recognitionstage,,2025.1.1,60.04805045584317,2026-02-03 19h35.54.703732 +0530,
,,,15,15,0,24,frames\Vid24_BB_T.png,frames\Vid24_L.png,['l'],1,[2.4055691999965347],[None],5,1.447444599994924,,,,,0,15,15,23,1851.125803300005,,22,Male,Right handed,Corrected to normal,,,,,,,,,,,,,,,,,,,,,,,,,,,,,,,,,,,,,,1851.1050601000024,1851.125803300005,1851.125803300005,1851.125803300005,1851.125803300005,1851.125803300005,1851.125803300005,1853.5453911000222,['l'],1,[2.4055691999965347],[None],1853.5463463000196,1853.5593013000034,1853.5593013000034,1853.5593013000034,1855.010293600004,5,1.447444599994924,5,1.447444599994924,,,,,,,,sub161_NB,001,2026-02-03_19h35.16.240,recognitionstage,,2025.1.1,60.04805045584317,2026-02-03 19h35.54.703732 +0530,
,,,16,16,0,35,frames\Vid35_EM_T.png,frames\Vid35_L.png,['r'],1,[7.53555219998816],[None],3,1.8472854999999981,,,,,0,16,16,34,1855.0278645000071,,22,Male,Right handed,Corrected to normal,,,,,,,,,,,,,,,,,,,,,,,,,,,,,,,,,,,,,,1855.0181383000163,1855.0278645000071,1855.0278645000071,1855.0278645000071,1855.0278645000071,1855.0278645000071,1855.0278645000071,1862.5788724000158,['r'],1,[7.53555219998816],[None],1862.5799191000115,1862.5931124000053,1862.5931124000053,1862.5931124000053,1864.4441945000144,3,1.8472854999999981,3,1.8472854999999981,,,,,,,,sub161_NB,001,2026-02-03_19h35.16.240,recognitionstage,,2025.1.1,60.04805045584317,2026-02-03 19h35.54.703732 +0530,
,,,17,17,0,22,frames\Vid22_EM_T.png,frames\Vid22_L.png,['r'],1,[7.303127699997276],[None],4,2.230540499993367,,,,,0,17,17,21,1864.4762501000077,,22,Male,Right handed,Corrected to normal,,,,,,,,,,,,,,,,,,,,,,,,,,,,,,,,,,,,,,1864.4575636000081,1864.4762501000077,1864.4762501000077,1864.4762501000077,1864.4762501000077,1864.4762501000077,1864.4762501000077,1871.7955946000002,['r'],1,[7.303127699997276],[None],1871.7967286000203,1871.8093182000157,1871.8093182000157,1871.8093182000157,1874.043444400013,4,2.230540499993367,4,2.230540499993367,,,,,,,,sub161_NB,001,2026-02-03_19h35.16.240,recognitionstage,,2025.1.1,60.04805045584317,2026-02-03 19h35.54.703732 +0530,
,,,18,18,0,39,frames\Vid39_BB_T.png,frames\Vid39_L.png,['l'],1,[8.213722999993479],[None],3,2.1490780000167433,,,,,0,18,18,38,1874.0616076000151,,22,Male,Right handed,Corrected to normal,,,,,,,,,,,,,,,,,,,,,,,,,,,,,,,,,,,,,,1874.0516609000042,1874.0616076000151,1874.0616076000151,1874.0616076000151,1874.0616076000151,1874.0616076000151,1874.0616076000151,1882.277946600021,['l'],1,[8.213722999993479],[None],1882.2787761000218,1882.2930782000185,1882.2930782000185,1882.2930782000185,1884.4433965000208,3,2.1490780000167433,3,2.1490780000167433,,,,,,,,sub161_NB,001,2026-02-03_19h35.16.240,recognitionstage,,2025.1.1,60.04805045584317,2026-02-03 19h35.54.703732 +0530,
,,,19,19,0,18,frames\Vid18_EM_T.png,frames\Vid18_L.png,['l'],1,[7.03006550000282],[None],3,1.11323529999936,,,,,0,19,19,17,1884.461445300025,,22,Male,Right handed,Corrected to normal,,,,,,,,,,,,,,,,,,,,,,,,,,,,,,,,,,,,,,1884.4539745000075,1884.461445300025,1884.461445300025,1884.461445300025,1884.461445300025,1884.461445300025,1884.461445300025,1891.4959088000178,['l'],1,[7.03006550000282],[None],1891.4968804000237,1891.5093164000136,1891.5093164000136,1891.5093164000136,1892.6272128000273,3,1.11323529999936,3,1.11323529999936,,,,,,,,sub161_NB,001,2026-02-03_19h35.16.240,recognitionstage,,2025.1.1,60.04805045584317,2026-02-03 19h35.54.703732 +0530,
,,,20,20,0,26,frames\Vid26_EM_T.png,frames\Vid26_L.png,['l'],0,[4.039827300002798],[None],4,1.3474276999768335,,,,,0,20,20,25,1892.6595939000254,,22,Male,Right handed,Corrected to normal,,,,,,,,,,,,,,,,,,,,,,,,,,,,,,,,,,,,,,1892.641473100026,1892.6595939000254,1892.6595939000254,1892.6595939000254,1892.6595939000254,1892.6595939000254,1892.6595939000254,1896.712225300027,['l'],0,[4.039827300002798],[None],1896.7131551000057,1896.7261943000194,1896.7261943000194,1896.7261943000194,1898.0770128000004,4,1.3474276999768335,4,1.3474276999768335,,,,,,,,sub161_NB,001,2026-02-03_19h35.16.240,recognitionstage,,2025.1.1,60.04805045584317,2026-02-03 19h35.54.703732 +0530,
,,,21,21,0,21,frames\Vid21_BB_T.png,frames\Vid21_L.png,['l'],1,[3.429996900027618],[None],5,1.44886229999247,,,,,0,21,21,20,1898.1094893000263,,22,Male,Right handed,Corrected to normal,,,,,,,,,,,,,,,,,,,,,,,,,,,,,,,,,,,,,,1898.088361000002,1898.1094893000263,1898.1094893000263,1898.1094893000263,1898.1094893000263,1898.1094893000263,1898.1094893000263,1901.5450173999998,['l'],1,[3.429996900027618],[None],1901.546008300007,1901.559981600003,1901.559981600003,1901.559981600003,1903.0103869000159,5,1.44886229999247,5,1.44886229999247,,,,,,,,sub161_NB,001,2026-02-03_19h35.16.240,recognitionstage,,2025.1.1,60.04805045584317,2026-02-03 19h35.54.703732 +0530,
,,,22,22,0,8,frames\Vid8_BB_T.png,frames\Vid8_L.png,['l'],1,[3.9829672999912873],[None],5,1.1312136999913491,,,,,0,22,22,7,1903.060337700008,,22,Male,Right handed,Corrected to normal,,,,,,,,,,,,,,,,,,,,,,,,,,,,,,,,,,,,,,1903.0504070000025,1903.060337700008,1903.060337700008,1903.060337700008,1903.060337700008,1903.060337700008,1903.060337700008,1907.045609200024,['l'],1,[3.9829672999912873],[None],1907.046487900021,1907.0596329000255,1907.0596329000255,1907.0596329000255,1908.1933919000148,5,1.1312136999913491,5,1.1312136999913491,,,,,,,,sub161_NB,001,2026-02-03_19h35.16.240,recognitionstage,,2025.1.1,60.04805045584317,2026-02-03 19h35.54.703732 +0530,
,,,23,23,0,25,frames\Vid25_BB_T.png,frames\Vid25_L.png,['r'],1,[6.933067900012247],[None],4,0.9980681999877561,,,,,0,23,23,24,1908.2144808000012,,22,Male,Right handed,Corrected to normal,,,,,,,,,,,,,,,,,,,,,,,,,,,,,,,,,,,,,,1908.202813300013,1908.2144808000012,1908.2144808000012,1908.2144808000012,1908.2144808000012,1908.2144808000012,1908.2144808000012,1915.161544600007,['r'],1,[6.933067900012247],[None],1915.1625170000189,1915.1767098000273,1915.1767098000273,1915.1767098000273,1916.177091700025,4,0.9980681999877561,4,0.9980681999877561,,,,,,,,sub161_NB,001,2026-02-03_19h35.16.240,recognitionstage,,2025.1.1,60.04805045584317,2026-02-03 19h35.54.703732 +0530,
,,,24,24,0,32,frames\Vid32_EM_T.png,frames\Vid32_L.png,['r'],1,[3.849816000001738],[None],4,2.3144897000165656,,,,,0,24,24,31,1916.209476100019,,22,Male,Right handed,Corrected to normal,,,,,,,,,,,,,,,,,,,,,,,,,,,,,,,,,,,,,,1916.1899924000027,1916.209476100019,1916.209476100019,1916.209476100019,1916.209476100019,1916.209476100019,1916.209476100019,1920.0617503000249,['r'],1,[3.849816000001738],[None],1920.0627041000116,1920.0762152000098,1920.0762152000098,1920.0762152000098,1922.3940274000051,4,2.3144897000165656,4,2.3144897000165656,,,,,,,,sub161_NB,001,2026-02-03_19h35.16.240,recognitionstage,,2025.1.1,60.04805045584317,2026-02-03 19h35.54.703732 +0530,
,,,25,25,0,20,frames\Vid20_EM_T.png,frames\Vid20_L.png,['l'],1,[3.5599809999985155],[None],4,2.2317115000041667,,,,,0,25,25,19,1922.4114797000075,,22,Male,Right handed,Corrected to normal,,,,,,,,,,,,,,,,,,,,,,,,,,,,,,,,,,,,,,1922.4006154000235,1922.4114797000075,1922.4114797000075,1922.4114797000075,1922.4114797000075,1922.4114797000075,1922.4114797000075,1925.9778112000204,['l'],1,[3.5599809999985155],[None],1925.9786435000133,1925.9932187000231,1925.9932187000231,1925.9932187000231,1928.227760400012,4,2.2317115000041667,4,2.2317115000041667,,,,,,,,sub161_NB,001,2026-02-03_19h35.16.240,recognitionstage,,2025.1.1,60.04805045584317,2026-02-03 19h35.54.703732 +0530,
,,,26,26,0,17,frames\Vid17_BB_T.png,frames\Vid17_L.png,['l'],1,[4.479281800013268],[None],4,1.3310705999901984,,,,,0,26,26,16,1928.2761593000032,,22,Male,Right handed,Corrected to normal,,,,,,,,,,,,,,,,,,,,,,,,,,,,,,,,,,,,,,1928.2547667000035,1928.2761593000032,1928.2761593000032,1928.2761593000032,1928.2761593000032,1928.2761593000032,1928.2761593000032,1932.7623487000237,['l'],1,[4.479281800013268],[None],1932.7638363000005,1932.7760495000111,1932.7760495000111,1932.7760495000111,1934.1106252000027,4,1.3310705999901984,4,1.3310705999901984,,,,,,,,sub161_NB,001,2026-02-03_19h35.16.240,recognitionstage,,2025.1.1,60.04805045584317,2026-02-03 19h35.54.703732 +0530,
,,,27,27,0,23,frames\Vid23_EM_T.png,frames\Vid23_L.png,['l'],1,[4.451558900007512],[None],1,0.998157900001388,,,,,0,27,27,22,1934.144094600022,,22,Male,Right handed,Corrected to normal,,,,,,,,,,,,,,,,,,,,,,,,,,,,,,,,,,,,,,1934.1266033000138,1934.144094600022,1934.144094600022,1934.144094600022,1934.144094600022,1934.144094600022,1934.144094600022,1938.6117163000163,['l'],1,[4.451558900007512],[None],1938.6128110999998,1938.6263946000254,1938.6263946000254,1938.6263946000254,1939.6274881000281,1,0.998157900001388,1,0.998157900001388,,,,,,,,sub161_NB,001,2026-02-03_19h35.16.240,recognitionstage,,2025.1.1,60.04805045584317,2026-02-03 19h35.54.703732 +0530,
,,,28,28,0,14,frames\Vid14_BB_T.png,frames\Vid14_L.png,['r'],1,[4.2299375999718904],[None],5,1.630766299989773,,,,,0,28,28,13,1939.6935739000037,,22,Male,Right handed,Corrected to normal,,,,,,,,,,,,,,,,,,,,,,,,,,,,,,,,,,,,,,1939.6763644000166,1939.6935739000037,1939.6935739000037,1939.6935739000037,1939.6935739000037,1939.6935739000037,1939.6935739000037,1943.9286483000033,['r'],1,[4.2299375999718904],[None],1943.929431800003,1943.9431749000214,1943.9431749000214,1943.9431749000214,1945.577458500018,5,1.630766299989773,5,1.630766299989773,,,,,,,,sub161_NB,001,2026-02-03_19h35.16.240,recognitionstage,,2025.1.1,60.04805045584317,2026-02-03 19h35.54.703732 +0530,
,,,29,29,0,38,frames\Vid38_EM_T.png,frames\Vid38_L.png,['r'],1,[4.023348099988652],[None],4,1.1474699999962468,,,,,0,29,29,37,1945.6120962000277,,22,Male,Right handed,Corrected to normal,,,,,,,,,,,,,,,,,,,,,,,,,,,,,,,,,,,,,,1945.5885005000164,1945.6120962000277,1945.6120962000277,1945.6120962000277,1945.6120962000277,1945.6120962000277,1945.6120962000277,1949.6454351000139,['r'],1,[4.023348099988652],[None],1949.6466543000133,1949.6599261000229,1949.6599261000229,1949.6599261000229,1950.8100436000095,4,1.1474699999962468,4,1.1474699999962468,,,,,,,,sub161_NB,001,2026-02-03_19h35.16.240,recognitionstage,,2025.1.1,60.04805045584317,2026-02-03 19h35.54.703732 +0530,
,,,30,30,0,19,frames\Vid19_BB_T.png,frames\Vid19_L.png,['l'],1,[9.248718199989526],[None],1,2.9470927999936976,,,,,0,30,30,18,1950.842936000001,,22,Male,Right handed,Corrected to normal,,,,,,,,,,,,,,,,,,,,,,,,,,,,,,,,,,,,,,1950.8223350000044,1950.842936000001,1950.842936000001,1950.842936000001,1950.842936000001,1950.842936000001,1950.842936000001,1960.0964765000099,['l'],1,[9.248718199989526],[None],1960.0974763000268,1960.1092895000183,1960.1092895000183,1960.1092895000183,1963.0603361000249,1,2.9470927999936976,1,2.9470927999936976,,,,,,,,sub161_NB,001,2026-02-03_19h35.16.240,recognitionstage,,2025.1.1,60.04805045584317,2026-02-03 19h35.54.703732 +0530,
,,,31,31,0,16,frames\Vid16_EM_T.png,frames\Vid16_L.png,['r'],1,[4.37307729999884],[None],3,1.913576799997827,,,,,0,31,31,15,1963.1104986000282,,22,Male,Right handed,Corrected to normal,,,,,,,,,,,,,,,,,,,,,,,,,,,,,,,,,,,,,,1963.101688100025,1963.1104986000282,1963.1104986000282,1963.1104986000282,1963.1104986000282,1963.1104986000282,1963.1104986000282,1967.4958240000124,['r'],1,[4.37307729999884],[None],1967.4969286000123,1967.5092703000118,1967.5092703000118,1967.5092703000118,1969.4278224000009,3,1.913576799997827,3,1.913576799997827,,,,,,,,sub161_NB,001,2026-02-03_19h35.16.240,recognitionstage,,2025.1.1,60.04805045584317,2026-02-03 19h35.54.703732 +0530,
,,,32,32,0,13,frames\Vid13_BB_T.png,frames\Vid13_L.png,['l'],0,[3.3643054999993183],[None],5,2.248878099984722,,,,,0,32,32,12,1969.4792672000185,,22,Male,Right handed,Corrected to normal,,,,,,,,,,,,,,,,,,,,,,,,,,,,,,,,,,,,,,1969.4623458000133,1969.4792672000185,1969.4792672000185,1969.4792672000185,1969.4792672000185,1969.4792672000185,1969.4792672000185,1972.8444879000017,['l'],0,[3.3643054999993183],[None],1972.8450858000142,1972.8596902000136,1972.8596902000136,1972.8596902000136,1975.1102122000011,5,2.248878099984722,5,2.248878099984722,,,,,,,,sub161_NB,001,2026-02-03_19h35.16.240,recognitionstage,,2025.1.1,60.04805045584317,2026-02-03 19h35.54.703732 +0530,
,,,33,33,0,34,frames\Vid34_BB_T.png,frames\Vid34_L.png,['l'],1,[3.6181745999783743],[None],4,1.0168441999994684,,,,,0,33,33,33,1975.14524480002,,22,Male,Right handed,Corrected to normal,,,,,,,,,,,,,,,,,,,,,,,,,,,,,,,,,,,,,,1975.1213985000213,1975.14524480002,1975.14524480002,1975.14524480002,1975.14524480002,1975.14524480002,1975.14524480002,1978.7775559000147,['l'],1,[3.6181745999783743],[None],1978.7782739000104,1978.7929691000027,1978.7929691000027,1978.7929691000027,1979.809893800004,4,1.0168441999994684,4,1.0168441999994684,,,,,,,,sub161_NB,001,2026-02-03_19h35.16.240,recognitionstage,,2025.1.1,60.04805045584317,2026-02-03 19h35.54.703732 +0530,
,,,34,34,0,3,frames\Vid3_BB_T.png,frames\Vid3_L.png,['r'],1,[2.8071717000275385],[None],5,1.1641084000002593,,,,,0,34,34,2,1979.8602638000157,,22,Male,Right handed,Corrected to normal,,,,,,,,,,,,,,,,,,,,,,,,,,,,,,,,,,,,,,1979.8478373000107,1979.8602638000157,1979.8602638000157,1979.8602638000157,1979.8602638000157,1979.8602638000157,1979.8602638000157,1982.6789573000278,['r'],1,[2.8071717000275385],[None],1982.6800337000168,1982.6926579000137,1982.6926579000137,1982.6926579000137,1983.859877400013,5,1.1641084000002593,5,1.1641084000002593,,,,,,,,sub161_NB,001,2026-02-03_19h35.16.240,recognitionstage,,2025.1.1,60.04805045584317,2026-02-03 19h35.54.703732 +0530,
,,,35,35,0,11,frames\Vid11_EM_T.png,frames\Vid11_L.png,['l'],1,[3.0900584000046365],[None],5,1.0314087999868207,,,,,0,35,35,10,1983.9292647000111,,22,Male,Right handed,Corrected to normal,,,,,,,,,,,,,,,,,,,,,,,,,,,,,,,,,,,,,,1983.9052534000075,1983.9292647000111,1983.9292647000111,1983.9292647000111,1983.9292647000111,1983.9292647000111,1983.9292647000111,1987.0283345000062,['l'],1,[3.0900584000046365],[None],1987.0297299000085,1987.0431532000075,1987.0431532000075,1987.0431532000075,1988.0778027000197,5,1.0314087999868207,5,1.0314087999868207,,,,,,,,sub161_NB,001,2026-02-03_19h35.16.240,recognitionstage,,2025.1.1,60.04805045584317,2026-02-03 19h35.54.703732 +0530,
,,,36,36,0,2,frames\Vid2_BB_T.png,frames\Vid2_L.png,['r'],1,[3.281126099987887],[None],5,0.9974136000091676,,,,,0,36,36,1,1988.1301659000164,,22,Male,Right handed,Corrected to normal,,,,,,,,,,,,,,,,,,,,,,,,,,,,,,,,,,,,,,1988.1166886000137,1988.1301659000164,1988.1301659000164,1988.1301659000164,1988.1301659000164,1988.1301659000164,1988.1301659000164,1991.4122215000098,['r'],1,[3.281126099987887],[None],1991.4133606000105,1991.4259678000235,1991.4259678000235,1991.4259678000235,1992.427180700004,5,0.9974136000091676,5,0.9974136000091676,,,,,,,,sub161_NB,001,2026-02-03_19h35.16.240,recognitionstage,,2025.1.1,60.04805045584317,2026-02-03 19h35.54.703732 +0530,
,,,37,37,0,31,frames\Vid31_EM_T.png,frames\Vid31_L.png,['r'],1,[6.843165500002215],[None],2,1.1658883000200149,,,,,0,37,37,30,1992.4481458000082,,22,Male,Right handed,Corrected to normal,,,,,,,,,,,,,,,,,,,,,,,,,,,,,,,,,,,,,,1992.4358772000123,1992.4481458000082,1992.4481458000082,1992.4481458000082,1992.4481458000082,1992.4481458000082,1992.4481458000082,1999.2943531000055,['r'],1,[6.843165500002215],[None],1999.2948633000196,1999.3100585000066,1999.3100585000066,1999.3100585000066,2000.47745950002,2,1.1658883000200149,2,1.1658883000200149,,,,,,,,sub161_NB,001,2026-02-03_19h35.16.240,recognitionstage,,2025.1.1,60.04805045584317,2026-02-03 19h35.54.703732 +0530,
,,,38,38,0,9,frames\Vid9_EM_T.png,frames\Vid9_L.png,['r'],1,[3.485086200002115],[None],5,0.9963742999825627,,,,,0,38,38,8,2000.5265574000077,,22,Male,Right handed,Corrected to normal,,,,,,,,,,,,,,,,,,,,,,,,,,,,,,,,,,,,,,2000.5166321000142,2000.5265574000077,2000.5265574000077,2000.5265574000077,2000.5265574000077,2000.5265574000077,2000.5265574000077,2004.0128061000141,['r'],1,[3.485086200002115],[None],2004.0141604000237,2004.0416802000254,2004.0416802000254,2004.0416802000254,2005.0278668000246,5,0.9963742999825627,5,0.9963742999825627,,,,,,,,sub161_NB,001,2026-02-03_19h35.16.240,recognitionstage,,2025.1.1,60.04805045584317,2026-02-03 19h35.54.703732 +0530,
,,,39,39,0,36,frames\Vid36_BB_T.png,frames\Vid36_L.png,['r'],1,[5.1255884999991395],[None],3,1.7160225000116043,,,,,0,39,39,35,2005.0619921000034,,22,Male,Right handed,Corrected to normal,,,,,,,,,,,,,,,,,,,,,,,,,,,,,,,,,,,,,,2005.0429004000034,2005.0619921000034,2005.0619921000034,2005.0619921000034,2005.0619921000034,2005.0619921000034,2005.0619921000034,2010.1940768000204,['r'],1,[5.1255884999991395],[None],2010.1947170000058,2010.2099244000274,2010.2099244000274,2010.2099244000274,2011.9272274000105,3,1.7160225000116043,3,1.7160225000116043,,,,,,,,sub161_NB,001,2026-02-03_19h35.16.240,recognitionstage,,2025.1.1,60.04805045584317,2026-02-03 19h35.54.703732 +0530,
,,,,,,,,,,,,,,,,,,,,,,,,,22,Male,Right handed,Corrected to normal,,,,,,,,,,,,,,,,,,,,,,,,,,,,,,,,,,,,,,,,,,,,,,,,,,,,,,,,,,,2011.9273535000102,2011.943786000018,2011.943786000018,2017.3453921000182,space,5.387556399975438,None,sub161_NB,001,2026-02-03_19h35.16.240,recognitionstage,,2025.1.1,60.04805045584317,2026-02-03 19h35.54.703732 +0530,
