path,duration,thisN,thisTrialN,thisRepN,movie_id,target_img,lure_img,resp.keys,resp.corr,resp.rt,resp.duration,conf_radio.response,conf_radio.rt,movie.thisRepN,movie.thisTrialN,movie.thisN,movie.thisIndex,recogloop.thisRepN,recogloop.thisTrialN,recogloop.thisN,recogloop.thisIndex,thisRow.t,notes,age,gender,handedness,vision,caffeine_2h,alcohol_smoke_12h,demographics.started,demographics.stopped,Instructions.started,text1.started,key_resp.started,Instructions.stopped,key_resp.keys,key_resp.rt,key_resp.duration,instruction_2.started,text2.started,key_resp_2.started,instruction_2.stopped,key_resp_2.keys,key_resp_2.rt,key_resp_2.duration,Videos.started,movie_2.started,key_resp_6.started,movie_2.stopped,key_resp_6.stopped,Videos.stopped,movie.key_resp_6.keys,ISI.started,text.started,ISI.stopped,text.stopped,movie.key_resp_6.rt,movie.key_resp_6.duration,recognition.started,text_4.started,key_resp_3.started,recognition.stopped,key_resp_3.keys,key_resp_3.rt,key_resp_3.duration,recognition_task.started,leftimage.started,rightimage.started,resp.started,frames_question.started,right_label.started,left_label.started,recognition_task.stopped,recogloop.resp.keys,recogloop.resp.corr,recogloop.resp.rt,recogloop.resp.duration,confidence.started,conf_text.started,conf_radio.started,conf_label.started,confidence.stopped,recogloop.conf_radio.response,recogloop.conf_radio.rt,confidence,confidence_rt,thank_you.started,text_6.started,key_resp_4.started,text_6.stopped,key_resp_4.stopped,thank_you.stopped,key_resp_4.keys,participant,session,date,expName,expVersion,psychopyVersion,frameRate,expStart,...103
,,,,,,,,,,,,,,,,,,,,,,,,22,Male,Right handed,Normal,Caffeine consumed in last 2 hours?,Alcohol or smoking in last 12 hours?,0.013709999999264255,0.016276599984848872,,,,,,,,,,,,,,,,,,,,,,,,,,,,,,,,,,,,,,,,,,,,,,,,,,,,,,,,,,,,,,,sub17_NB,001,2026-01-18_10h47.37.200,recognitionstage,,2025.1.1,60.099151586655275,2026-01-18 10h49.12.178414 +0530,
,,,,,,,,,,,,,,,,,,,,,,,,22,Male,Right handed,Normal,,,,,0.016299399983836338,0.032684799982234836,0.032684799982234836,6.935135599982459,space,6.897128299984615,None,,,,,,,,,,,,,,,,,,,,,,,,,,,,,,,,,,,,,,,,,,,,,,,,,,,,,,,,sub17_NB,001,2026-01-18_10h47.37.200,recognitionstage,,2025.1.1,60.099151586655275,2026-01-18 10h49.12.178414 +0530,
,,,,,,,,,,,,,,,,,,,,,,,,22,Male,Right handed,Normal,,,,,,,,,,,,6.935192200005986,6.950593499990646,6.950593499990646,13.65167819999624,space,6.699047000001883,None,,,,,,,,,,,,,,,,,,,,,,,,,,,,,,,,,,,,,,,,,,,,,,,,,sub17_NB,001,2026-01-18_10h47.37.200,recognitionstage,,2025.1.1,60.099151586655275,2026-01-18 10h49.12.178414 +0530,
Trimmed_videos/natural_19.mp4,37,44,44,0,,,,,,,,,,0,44,44,21,,,,,1485.850709099992,,22,Male,Right handed,Normal,,,,,,,,,,,,,,,,,,,1485.7993458999845,1485.850709099992,1485.850709099992,1523.1169357000035,1523.1169357000035,1522.9665532000072,None,1523.1020761999825,1523.1169357000035,1525.6042916000006,1485.850709099992,2.1992582000093535,None,1525.604417800001,1525.618943599984,1525.618943599984,1549.7032226999872,space,24.08100679999916,None,,,,,,,,,,,,,,,,,,,,,,,,,,,,,sub17_NB,001,2026-01-18_10h47.37.200,recognitionstage,,2025.1.1,60.099151586655275,2026-01-18 10h49.12.178414 +0530,
,,0,0,0,30,frames\Vid30_EM_T.png,frames\Vid30_L.png,['r'],1,[9.871299599995837],[None],5,6.497405600006459,,,,,0,0,0,29,1549.7332022000046,,22,Male,Right handed,Normal,,,,,,,,,,,,,,,,,,,,,,,,,,,,,,,,,,,,,,,1549.7203530999832,1549.7332022000046,1549.7332022000046,1549.7332022000046,1549.7332022000046,1549.7332022000046,1549.7332022000046,1559.6206971000065,['r'],1,[9.871299599995837],[None],1559.6216717000061,1559.6495692000026,1559.6495692000026,1559.6495692000026,1566.1362009999866,5,6.497405600006459,5,6.497405600006459,,,,,,,,sub17_NB,001,2026-01-18_10h47.37.200,recognitionstage,,2025.1.1,60.099151586655275,2026-01-18 10h49.12.178414 +0530,
,,1,1,0,29,frames\Vid29_BB_T.png,frames\Vid29_L.png,['r'],1,[9.325078800000483],[None],3,2.29829969999264,,,,,0,1,1,28,1566.1670575999888,,22,Male,Right handed,Normal,,,,,,,,,,,,,,,,,,,,,,,,,,,,,,,,,,,,,,,1566.151039199991,1566.1670575999888,1566.1670575999888,1566.1670575999888,1566.1670575999888,1566.1670575999888,1566.1670575999888,1575.5031364999886,['r'],1,[9.325078800000483],[None],1575.5039522000006,1575.518400800007,1575.518400800007,1575.518400800007,1577.818918600009,3,2.29829969999264,3,2.29829969999264,,,,,,,,sub17_NB,001,2026-01-18_10h47.37.200,recognitionstage,,2025.1.1,60.099151586655275,2026-01-18 10h49.12.178414 +0530,
,,2,2,0,38,frames\Vid38_EM_T.png,frames\Vid38_L.png,['l'],1,[10.023466899991035],[None],4,1.7155786999792326,,,,,0,2,2,37,1577.8365105999983,,22,Male,Right handed,Normal,,,,,,,,,,,,,,,,,,,,,,,,,,,,,,,,,,,,,,,1577.8287178000028,1577.8365105999983,1577.8365105999983,1577.8365105999983,1577.8365105999983,1577.8365105999983,1577.8365105999983,1587.8694516000105,['l'],1,[10.023466899991035],[None],1587.87034210001,1587.8847505000012,1587.8847505000012,1587.8847505000012,1589.6020330000028,4,1.7155786999792326,4,1.7155786999792326,,,,,,,,sub17_NB,001,2026-01-18_10h47.37.200,recognitionstage,,2025.1.1,60.099151586655275,2026-01-18 10h49.12.178414 +0530,
,,3,3,0,40,frames\Vid40_EM_T.png,frames\Vid40_L.png,['r'],1,[10.45599780001794],[None],5,2.4141983999870718,,,,,0,3,3,39,1589.6199679999845,,22,Male,Right handed,Normal,,,,,,,,,,,,,,,,,,,,,,,,,,,,,,,,,,,,,,,1589.6119703000004,1589.6199679999845,1589.6199679999845,1589.6199679999845,1589.6199679999845,1589.6199679999845,1589.6199679999845,1600.0868606999866,['r'],1,[10.45599780001794],[None],1600.087814300001,1600.1011815000093,1600.1011815000093,1600.1011815000093,1602.5191796,5,2.4141983999870718,5,2.4141983999870718,,,,,,,,sub17_NB,001,2026-01-18_10h47.37.200,recognitionstage,,2025.1.1,60.099151586655275,2026-01-18 10h49.12.178414 +0530,
,,4,4,0,22,frames\Vid22_EM_T.png,frames\Vid22_L.png,['l'],1,[5.125016800011508],[None],5,1.215740099985851,,,,,0,4,4,21,1602.5509533000004,,22,Male,Right handed,Normal,,,,,,,,,,,,,,,,,,,,,,,,,,,,,,,,,,,,,,,1602.5323472000018,1602.5509533000004,1602.5509533000004,1602.5509533000004,1602.5509533000004,1602.5509533000004,1602.5509533000004,1607.6862441999838,['l'],1,[5.125016800011508],[None],1607.687145600008,1607.7016040000017,1607.7016040000017,1607.7016040000017,1608.918589399982,5,1.215740099985851,5,1.215740099985851,,,,,,,,sub17_NB,001,2026-01-18_10h47.37.200,recognitionstage,,2025.1.1,60.099151586655275,2026-01-18 10h49.12.178414 +0530,
,,5,5,0,32,frames\Vid32_EM_T.png,frames\Vid32_L.png,['r'],1,[3.8446072000078857],[None],5,1.0149930999905337,,,,,0,5,5,31,1608.9514072999882,,22,Male,Right handed,Normal,,,,,,,,,,,,,,,,,,,,,,,,,,,,,,,,,,,,,,,1608.9296142999956,1608.9514072999882,1608.9514072999882,1608.9514072999882,1608.9514072999882,1608.9514072999882,1608.9514072999882,1612.8034894999873,['r'],1,[3.8446072000078857],[None],1612.804297499999,1612.817861299991,1612.817861299991,1612.817861299991,1613.8356284000038,5,1.0149930999905337,5,1.0149930999905337,,,,,,,,sub17_NB,001,2026-01-18_10h47.37.200,recognitionstage,,2025.1.1,60.099151586655275,2026-01-18 10h49.12.178414 +0530,
,,6,6,0,17,frames\Vid17_BB_T.png,frames\Vid17_L.png,['r'],1,[5.903580800018972],[None],3,2.7966880000021774,,,,,0,6,6,16,1613.868463299994,,22,Male,Right handed,Normal,,,,,,,,,,,,,,,,,,,,,,,,,,,,,,,,,,,,,,,1613.85980939999,1613.868463299994,1613.868463299994,1613.868463299994,1613.868463299994,1613.868463299994,1613.868463299994,1619.7880015999835,['r'],1,[5.903580800018972],[None],1619.7891300999909,1619.8011336000054,1619.8011336000054,1619.8011336000054,1622.6021173000045,3,2.7966880000021774,3,2.7966880000021774,,,,,,,,sub17_NB,001,2026-01-18_10h47.37.200,recognitionstage,,2025.1.1,60.099151586655275,2026-01-18 10h49.12.178414 +0530,
,,7,7,0,2,frames\Vid2_BB_T.png,frames\Vid2_L.png,['l'],1,[5.792826700024307],[None],5,1.216214999993099,,,,,0,7,7,1,1622.667175199982,,22,Male,Right handed,Normal,,,,,,,,,,,,,,,,,,,,,,,,,,,,,,,,,,,,,,,1622.6470361000102,1622.667175199982,1622.667175199982,1622.667175199982,1622.667175199982,1622.667175199982,1622.667175199982,1628.469216700003,['l'],1,[5.792826700024307],[None],1628.4700008000073,1628.4853757999954,1628.4853757999954,1628.4853757999954,1629.7016210999864,5,1.216214999993099,5,1.216214999993099,,,,,,,,sub17_NB,001,2026-01-18_10h47.37.200,recognitionstage,,2025.1.1,60.099151586655275,2026-01-18 10h49.12.178414 +0530,
,,8,8,0,12,frames\Vid12_EM_T.png,frames\Vid12_L.png,['r'],1,[7.642187599994941],[None],5,1.515470499987714,,,,,0,8,8,11,1629.7699251000013,,22,Male,Right handed,Normal,,,,,,,,,,,,,,,,,,,,,,,,,,,,,,,,,,,,,,,1629.7518398000102,1629.7699251000013,1629.7699251000013,1629.7699251000013,1629.7699251000013,1629.7699251000013,1629.7699251000013,1637.4199497000081,['r'],1,[7.642187599994941],[None],1637.4209642999922,1637.4346200999862,1637.4346200999862,1637.4346200999862,1638.9523836000008,5,1.515470499987714,5,1.515470499987714,,,,,,,,sub17_NB,001,2026-01-18_10h47.37.200,recognitionstage,,2025.1.1,60.099151586655275,2026-01-18 10h49.12.178414 +0530,
,,9,9,0,25,frames\Vid25_BB_T.png,frames\Vid25_L.png,['l'],1,[5.216594900004566],[None],5,0.9662710999837145,,,,,0,9,9,24,1638.987483600009,,22,Male,Right handed,Normal,,,,,,,,,,,,,,,,,,,,,,,,,,,,,,,,,,,,,,,1638.9645575000031,1638.987483600009,1638.987483600009,1638.987483600009,1638.987483600009,1638.987483600009,1638.987483600009,1644.2193145999918,['l'],1,[5.216594900004566],[None],1644.2201122999832,1644.2353427000053,1644.2353427000053,1644.2353427000053,1645.2026250000054,5,0.9662710999837145,5,0.9662710999837145,,,,,,,,sub17_NB,001,2026-01-18_10h47.37.200,recognitionstage,,2025.1.1,60.099151586655275,2026-01-18 10h49.12.178414 +0530,
,,10,10,0,28,frames\Vid28_EM_T.png,frames\Vid28_L.png,['r'],1,[3.489486200007377],[None],5,2.514113000012003,,,,,0,10,10,27,1645.2345898000058,,22,Male,Right handed,Normal,,,,,,,,,,,,,,,,,,,,,,,,,,,,,,,,,,,,,,,1645.2127240999835,1645.2345898000058,1645.2345898000058,1645.2345898000058,1645.2345898000058,1645.2345898000058,1645.2345898000058,1648.7372473999858,['r'],1,[3.489486200007377],[None],1648.7383951999946,1648.7514475999924,1648.7514475999924,1648.7514475999924,1651.268369700003,5,2.514113000012003,5,2.514113000012003,,,,,,,,sub17_NB,001,2026-01-18_10h47.37.200,recognitionstage,,2025.1.1,60.099151586655275,2026-01-18 10h49.12.178414 +0530,
,,11,11,0,26,frames\Vid26_EM_T.png,frames\Vid26_L.png,['r'],1,[11.110917499987409],[None],5,1.0808631999825593,,,,,0,11,11,25,1651.3012326000025,,22,Male,Right handed,Normal,,,,,,,,,,,,,,,,,,,,,,,,,,,,,,,,,,,,,,,1651.2824528999918,1651.3012326000025,1651.3012326000025,1651.3012326000025,1651.3012326000025,1651.3012326000025,1651.3012326000025,1662.4206279999926,['r'],1,[11.110917499987409],[None],1662.4215427000017,1662.4345017999876,1662.4345017999876,1662.4345017999876,1663.5186327999982,5,1.0808631999825593,5,1.0808631999825593,,,,,,,,sub17_NB,001,2026-01-18_10h47.37.200,recognitionstage,,2025.1.1,60.099151586655275,2026-01-18 10h49.12.178414 +0530,
,,12,12,0,20,frames\Vid20_EM_T.png,frames\Vid20_L.png,['r'],1,[7.819020599999931],[None],2,3.965470399998594,,,,,0,12,12,19,1663.5369636999967,,22,Male,Right handed,Normal,,,,,,,,,,,,,,,,,,,,,,,,,,,,,,,,,,,,,,,1663.5250253999839,1663.5369636999967,1663.5369636999967,1663.5369636999967,1663.5369636999967,1663.5369636999967,1663.5369636999967,1671.3701334999932,['r'],1,[7.819020599999931],[None],1671.3709199999867,1671.3847090000054,1671.3847090000054,1671.3847090000054,1675.3521566999843,2,3.965470399998594,2,3.965470399998594,,,,,,,,sub17_NB,001,2026-01-18_10h47.37.200,recognitionstage,,2025.1.1,60.099151586655275,2026-01-18 10h49.12.178414 +0530,
,,13,13,0,6,frames\Vid6_BB_T.png,frames\Vid6_L.png,['l'],1,[3.073660199996084],[None],5,1.4318070000153966,,,,,0,13,13,5,1675.4184823000105,,22,Male,Right handed,Normal,,,,,,,,,,,,,,,,,,,,,,,,,,,,,,,,,,,,,,,1675.3962072999857,1675.4184823000105,1675.4184823000105,1675.4184823000105,1675.4184823000105,1675.4184823000105,1675.4184823000105,1678.5041637000104,['l'],1,[3.073660199996084],[None],1678.505011900008,1678.5178194000036,1678.5178194000036,1678.5178194000036,1679.9524037000083,5,1.4318070000153966,5,1.4318070000153966,,,,,,,,sub17_NB,001,2026-01-18_10h47.37.200,recognitionstage,,2025.1.1,60.099151586655275,2026-01-18 10h49.12.178414 +0530,
,,14,14,0,35,frames\Vid35_EM_T.png,frames\Vid35_L.png,['l'],1,[4.070915299991611],[None],5,0.8811723999970127,,,,,0,14,14,34,1679.9732337000023,,22,Male,Right handed,Normal,,,,,,,,,,,,,,,,,,,,,,,,,,,,,,,,,,,,,,,1679.9614355000085,1679.9732337000023,1679.9732337000023,1679.9732337000023,1679.9732337000023,1679.9732337000023,1679.9732337000023,1684.0535728000104,['l'],1,[4.070915299991611],[None],1684.0546048000106,1684.082928399992,1684.082928399992,1684.082928399992,1684.952856799995,5,0.8811723999970127,5,0.8811723999970127,,,,,,,,sub17_NB,001,2026-01-18_10h47.37.200,recognitionstage,,2025.1.1,60.099151586655275,2026-01-18 10h49.12.178414 +0530,
,,15,15,0,24,frames\Vid24_BB_T.png,frames\Vid24_L.png,['l'],1,[5.6190683000022545],[None],5,1.196246000006795,,,,,0,15,15,23,1684.9851089000003,,22,Male,Right handed,Normal,,,,,,,,,,,,,,,,,,,,,,,,,,,,,,,,,,,,,,,1684.9660376999818,1684.9851089000003,1684.9851089000003,1684.9851089000003,1684.9851089000003,1684.9851089000003,1684.9851089000003,1690.6050605000055,['l'],1,[5.6190683000022545],[None],1690.6061676999961,1690.633275100001,1690.633275100001,1690.633275100001,1691.8196909999824,5,1.196246000006795,5,1.196246000006795,,,,,,,,sub17_NB,001,2026-01-18_10h47.37.200,recognitionstage,,2025.1.1,60.099151586655275,2026-01-18 10h49.12.178414 +0530,
,,16,16,0,4,frames\Vid4_EM_T.png,frames\Vid4_L.png,['r'],1,[11.334360000008019],[None],5,3.0992874999938067,,,,,0,16,16,3,1691.8856872000033,,22,Male,Right handed,Normal,,,,,,,,,,,,,,,,,,,,,,,,,,,,,,,,,,,,,,,1691.867902500002,1691.8856872000033,1691.8856872000033,1691.8856872000033,1691.8856872000033,1691.8856872000033,1691.8856872000033,1703.236702299997,['r'],1,[11.334360000008019],[None],1703.237550299993,1703.2513090999855,1703.2513090999855,1703.2513090999855,1706.3517904999899,5,3.0992874999938067,5,3.0992874999938067,,,,,,,,sub17_NB,001,2026-01-18_10h47.37.200,recognitionstage,,2025.1.1,60.099151586655275,2026-01-18 10h49.12.178414 +0530,
,,17,17,0,37,frames\Vid37_BB_T.png,frames\Vid37_L.png,['l'],1,[2.3122203999955673],[None],5,0.9805109000008088,,,,,0,17,17,36,1706.3879127999826,,22,Male,Right handed,Normal,,,,,,,,,,,,,,,,,,,,,,,,,,,,,,,,,,,,,,,1706.3626214999822,1706.3879127999826,1706.3879127999826,1706.3879127999826,1706.3879127999826,1706.3879127999826,1706.3879127999826,1708.7042156000098,['l'],1,[2.3122203999955673],[None],1708.7052102999878,1708.7179625999997,1708.7179625999997,1708.7179625999997,1709.7022855000105,5,0.9805109000008088,5,0.9805109000008088,,,,,,,,sub17_NB,001,2026-01-18_10h47.37.200,recognitionstage,,2025.1.1,60.099151586655275,2026-01-18 10h49.12.178414 +0530,
,,18,18,0,9,frames\Vid9_EM_T.png,frames\Vid9_L.png,['l'],1,[6.852377000002889],[None],2,2.7318565000023227,,,,,0,18,18,8,1709.7522245,,22,Male,Right handed,Normal,,,,,,,,,,,,,,,,,,,,,,,,,,,,,,,,,,,,,,,1709.7383173999842,1709.7522245,1709.7522245,1709.7522245,1709.7522245,1709.7522245,1709.7522245,1716.6195273000048,['l'],1,[6.852377000002889],[None],1716.6203037000087,1716.6352235999948,1716.6352235999948,1716.6352235999948,1719.368910899997,2,2.7318565000023227,2,2.7318565000023227,,,,,,,,sub17_NB,001,2026-01-18_10h47.37.200,recognitionstage,,2025.1.1,60.099151586655275,2026-01-18 10h49.12.178414 +0530,
,,19,19,0,21,frames\Vid21_BB_T.png,frames\Vid21_L.png,['r'],1,[3.5524566000094637],[None],5,1.0496321999817155,,,,,0,19,19,20,1719.4036119999946,,22,Male,Right handed,Normal,,,,,,,,,,,,,,,,,,,,,,,,,,,,,,,,,,,,,,,1719.3801345000102,1719.4036119999946,1719.4036119999946,1719.4036119999946,1719.4036119999946,1719.4036119999946,1719.4036119999946,1722.9691373000096,['r'],1,[3.5524566000094637],[None],1722.9698273999966,1722.9850254000048,1722.9850254000048,1722.9850254000048,1724.0352760000096,5,1.0496321999817155,5,1.0496321999817155,,,,,,,,sub17_NB,001,2026-01-18_10h47.37.200,recognitionstage,,2025.1.1,60.099151586655275,2026-01-18 10h49.12.178414 +0530,
,,20,20,0,15,frames\Vid15_BB_T.png,frames\Vid15_L.png,['l'],1,[3.7897295000148006],[None],5,0.597504300007131,,,,,0,20,20,14,1724.1025832000014,,22,Male,Right handed,Normal,,,,,,,,,,,,,,,,,,,,,,,,,,,,,,,,,,,,,,,1724.0835092999914,1724.1025832000014,1724.1025832000014,1724.1025832000014,1724.1025832000014,1724.1025832000014,1724.1025832000014,1727.903894099989,['l'],1,[3.7897295000148006],[None],1727.9051741999865,1727.918534700002,1727.918534700002,1727.918534700002,1728.519759799994,5,0.597504300007131,5,0.597504300007131,,,,,,,,sub17_NB,001,2026-01-18_10h47.37.200,recognitionstage,,2025.1.1,60.099151586655275,2026-01-18 10h49.12.178414 +0530,
,,21,21,0,7,frames\Vid7_EM_T.png,frames\Vid7_L.png,['l'],1,[8.327367299993057],[None],2,1.56492609999259,,,,,0,21,21,6,1728.589004599984,,22,Male,Right handed,Normal,,,,,,,,,,,,,,,,,,,,,,,,,,,,,,,,,,,,,,,1728.5637840999989,1728.589004599984,1728.589004599984,1728.589004599984,1728.589004599984,1728.589004599984,1728.589004599984,1736.9201155999908,['l'],1,[8.327367299993057],[None],1736.9211809999833,1736.9350479999848,1736.9350479999848,1736.9350479999848,1738.5027648999821,2,1.56492609999259,2,1.56492609999259,,,,,,,,sub17_NB,001,2026-01-18_10h47.37.200,recognitionstage,,2025.1.1,60.099151586655275,2026-01-18 10h49.12.178414 +0530,
,,22,22,0,23,frames\Vid23_EM_T.png,frames\Vid23_L.png,['l'],1,[2.9471095000044443],[None],5,1.212988299987046,,,,,0,22,22,22,1738.537271899986,,22,Male,Right handed,Normal,,,,,,,,,,,,,,,,,,,,,,,,,,,,,,,,,,,,,,,1738.5195123000012,1738.537271899986,1738.537271899986,1738.537271899986,1738.537271899986,1738.537271899986,1738.537271899986,1741.4881909000105,['l'],1,[2.9471095000044443],[None],1741.4893614999892,1741.5012488999928,1741.5012488999928,1741.5012488999928,1742.718789799983,5,1.212988299987046,5,1.212988299987046,,,,,,,,sub17_NB,001,2026-01-18_10h47.37.200,recognitionstage,,2025.1.1,60.099151586655275,2026-01-18 10h49.12.178414 +0530,
,,23,23,0,36,frames\Vid36_BB_T.png,frames\Vid36_L.png,['r'],1,[3.6766563999990467],[None],5,1.164810199989006,,,,,0,23,23,35,1742.7515128999949,,22,Male,Right handed,Normal,,,,,,,,,,,,,,,,,,,,,,,,,,,,,,,,,,,,,,,1742.730599100003,1742.7515128999949,1742.7515128999949,1742.7515128999949,1742.7515128999949,1742.7515128999949,1742.7515128999949,1746.437020799989,['r'],1,[3.6766563999990467],[None],1746.4379072999873,1746.4513134000008,1746.4513134000008,1746.4513134000008,1747.6186006999924,5,1.164810199989006,5,1.164810199989006,,,,,,,,sub17_NB,001,2026-01-18_10h47.37.200,recognitionstage,,2025.1.1,60.099151586655275,2026-01-18 10h49.12.178414 +0530,
,,24,24,0,19,frames\Vid19_BB_T.png,frames\Vid19_L.png,['r'],1,[9.824885699985316],[None],3,1.6653756000159774,,,,,0,24,24,18,1747.651305300009,,22,Male,Right handed,Normal,,,,,,,,,,,,,,,,,,,,,,,,,,,,,,,,,,,,,,,1747.6292208000086,1747.651305300009,1747.651305300009,1747.651305300009,1747.651305300009,1747.651305300009,1747.651305300009,1757.4861125999887,['r'],1,[9.824885699985316],[None],1757.487022699992,1757.5026727000077,1757.5026727000077,1757.5026727000077,1759.168841000006,3,1.6653756000159774,3,1.6653756000159774,,,,,,,,sub17_NB,001,2026-01-18_10h47.37.200,recognitionstage,,2025.1.1,60.099151586655275,2026-01-18 10h49.12.178414 +0530,
,,25,25,0,13,frames\Vid13_BB_T.png,frames\Vid13_L.png,['r'],0,[7.849243499978911],[None],1,1.414245399995707,,,,,0,25,25,12,1759.2190119999868,,22,Male,Right handed,Normal,,,,,,,,,,,,,,,,,,,,,,,,,,,,,,,,,,,,,,,1759.2009577999997,1759.2190119999868,1759.2190119999868,1759.2190119999868,1759.2190119999868,1759.2190119999868,1759.2190119999868,1767.0704801999964,['r'],0,[7.849243499978911],[None],1767.0714475999994,1767.0848384999845,1767.0848384999845,1767.0848384999845,1768.5021888999909,1,1.414245399995707,1,1.414245399995707,,,,,,,,sub17_NB,001,2026-01-18_10h47.37.200,recognitionstage,,2025.1.1,60.099151586655275,2026-01-18 10h49.12.178414 +0530,
,,26,26,0,10,frames\Vid10_BB_T.png,frames\Vid10_L.png,['r'],1,[5.81749490002403],[None],5,1.8309202999807894,,,,,0,26,26,9,1768.5548870000057,,22,Male,Right handed,Normal,,,,,,,,,,,,,,,,,,,,,,,,,,,,,,,,,,,,,,,1768.5434487999883,1768.5548870000057,1768.5548870000057,1768.5548870000057,1768.5548870000057,1768.5548870000057,1768.5548870000057,1774.3871280000021,['r'],1,[5.81749490002403],[None],1774.3881497999828,1774.4017833999824,1774.4017833999824,1774.4017833999824,1776.235708399996,5,1.8309202999807894,5,1.8309202999807894,,,,,,,,sub17_NB,001,2026-01-18_10h47.37.200,recognitionstage,,2025.1.1,60.099151586655275,2026-01-18 10h49.12.178414 +0530,
,,27,27,0,27,frames\Vid27_BB_T.png,frames\Vid27_L.png,['l'],1,[4.964092799986247],[None],4,2.879999900003895,,,,,0,27,27,26,1776.2564053999959,,22,Male,Right handed,Normal,,,,,,,,,,,,,,,,,,,,,,,,,,,,,,,,,,,,,,,1776.2452667999896,1776.2564053999959,1776.2564053999959,1776.2564053999959,1776.2564053999959,1776.2564053999959,1776.2564053999959,1781.2380168999953,['l'],1,[4.964092799986247],[None],1781.2390360999852,1781.2513801000023,1781.2513801000023,1781.2513801000023,1784.1358160999953,4,2.879999900003895,4,2.879999900003895,,,,,,,,sub17_NB,001,2026-01-18_10h47.37.200,recognitionstage,,2025.1.1,60.099151586655275,2026-01-18 10h49.12.178414 +0530,
,,28,28,0,34,frames\Vid34_BB_T.png,frames\Vid34_L.png,['r'],1,[7.515213100006804],[None],2,1.6659594000084326,,,,,0,28,28,33,1784.153023299994,,22,Male,Right handed,Normal,,,,,,,,,,,,,,,,,,,,,,,,,,,,,,,,,,,,,,,1784.1455651999859,1784.153023299994,1784.153023299994,1784.153023299994,1784.153023299994,1784.153023299994,1784.153023299994,1791.6698236000084,['r'],1,[7.515213100006804],[None],1791.6704444999923,1791.6850246000104,1791.6850246000104,1791.6850246000104,1793.3519273999846,2,1.6659594000084326,2,1.6659594000084326,,,,,,,,sub17_NB,001,2026-01-18_10h47.37.200,recognitionstage,,2025.1.1,60.099151586655275,2026-01-18 10h49.12.178414 +0530,
,,29,29,0,33,frames\Vid33_BB_T.png,frames\Vid33_L.png,['l'],1,[4.850421200011624],[None],5,1.1460939999960829,,,,,0,29,29,32,1793.3703071000054,,22,Male,Right handed,Normal,,,,,,,,,,,,,,,,,,,,,,,,,,,,,,,,,,,,,,,1793.3603236000054,1793.3703071000054,1793.3703071000054,1793.3703071000054,1793.3703071000054,1793.3703071000054,1793.3703071000054,1798.2384104999946,['l'],1,[4.850421200011624],[None],1798.2397923000099,1798.2513933999871,1798.2513933999871,1798.2513933999871,1799.4023528000107,5,1.1460939999960829,5,1.1460939999960829,,,,,,,,sub17_NB,001,2026-01-18_10h47.37.200,recognitionstage,,2025.1.1,60.099151586655275,2026-01-18 10h49.12.178414 +0530,
,,30,30,0,1,frames\Vid1_EM_T.png,frames\Vid1_L.png,['l'],1,[8.071044100011932],[None],5,0.966237499989802,,,,,0,30,30,0,1799.4691863000044,,22,Male,Right handed,Normal,,,,,,,,,,,,,,,,,,,,,,,,,,,,,,,,,,,,,,,1799.447001499997,1799.4691863000044,1799.4691863000044,1799.4691863000044,1799.4691863000044,1799.4691863000044,1799.4691863000044,1807.5528420000046,['l'],1,[8.071044100011932],[None],1807.553399299999,1807.5681851999834,1807.5681851999834,1807.5681851999834,1808.5354909999878,5,0.966237499989802,5,0.966237499989802,,,,,,,,sub17_NB,001,2026-01-18_10h47.37.200,recognitionstage,,2025.1.1,60.099151586655275,2026-01-18 10h49.12.178414 +0530,
,,31,31,0,39,frames\Vid39_BB_T.png,frames\Vid39_L.png,['l'],1,[4.175599200010765],[None],5,1.0981066999956965,,,,,0,31,31,38,1808.5567869000079,,22,Male,Right handed,Normal,,,,,,,,,,,,,,,,,,,,,,,,,,,,,,,,,,,,,,,1808.5441627999826,1808.5567869000079,1808.5567869000079,1808.5567869000079,1808.5567869000079,1808.5567869000079,1808.5567869000079,1812.7369914999872,['l'],1,[4.175599200010765],[None],1812.7380083999888,1812.7518297999923,1812.7518297999923,1812.7518297999923,1813.8524453999999,5,1.0981066999956965,5,1.0981066999956965,,,,,,,,sub17_NB,001,2026-01-18_10h47.37.200,recognitionstage,,2025.1.1,60.099151586655275,2026-01-18 10h49.12.178414 +0530,
,,32,32,0,31,frames\Vid31_EM_T.png,frames\Vid31_L.png,['r'],1,[3.382251799979713],[None],5,0.6806745000067167,,,,,0,32,32,30,1813.8700631999818,,22,Male,Right handed,Normal,,,,,,,,,,,,,,,,,,,,,,,,,,,,,,,,,,,,,,,1813.8598128999874,1813.8700631999818,1813.8700631999818,1813.8700631999818,1813.8700631999818,1813.8700631999818,1813.8700631999818,1817.2544822999917,['r'],1,[3.382251799979713],[None],1817.2554059000104,1817.268270200002,1817.268270200002,1817.268270200002,1817.9532120999938,5,0.6806745000067167,5,0.6806745000067167,,,,,,,,sub17_NB,001,2026-01-18_10h47.37.200,recognitionstage,,2025.1.1,60.099151586655275,2026-01-18 10h49.12.178414 +0530,
,,33,33,0,3,frames\Vid3_BB_T.png,frames\Vid3_L.png,['l'],1,[4.641778299992438],[None],5,0.8320764999953099,,,,,0,33,33,2,1818.0025595999905,,22,Male,Right handed,Normal,,,,,,,,,,,,,,,,,,,,,,,,,,,,,,,,,,,,,,,1817.9929788000009,1818.0025595999905,1818.0025595999905,1818.0025595999905,1818.0025595999905,1818.0025595999905,1818.0025595999905,1822.6538379999984,['l'],1,[4.641778299992438],[None],1822.654745799984,1822.6683179999818,1822.6683179999818,1822.6683179999818,1823.502112199989,5,0.8320764999953099,5,0.8320764999953099,,,,,,,,sub17_NB,001,2026-01-18_10h47.37.200,recognitionstage,,2025.1.1,60.099151586655275,2026-01-18 10h49.12.178414 +0530,
,,34,34,0,5,frames\Vid5_EM_T.png,frames\Vid5_L.png,['l'],1,[4.79356310001458],[None],5,0.7313660999934655,,,,,0,34,34,4,1823.5549602999818,,22,Male,Right handed,Normal,,,,,,,,,,,,,,,,,,,,,,,,,,,,,,,,,,,,,,,1823.5321546999912,1823.5549602999818,1823.5549602999818,1823.5549602999818,1823.5549602999818,1823.5549602999818,1823.5549602999818,1828.3536210999882,['l'],1,[4.79356310001458],[None],1828.354486600001,1828.3684127999877,1828.3684127999877,1828.3684127999877,1829.1024402999901,5,0.7313660999934655,5,0.7313660999934655,,,,,,,,sub17_NB,001,2026-01-18_10h47.37.200,recognitionstage,,2025.1.1,60.099151586655275,2026-01-18 10h49.12.178414 +0530,
,,35,35,0,16,frames\Vid16_EM_T.png,frames\Vid16_L.png,['r'],1,[7.121916300005978],[None],2,1.2488967000099365,,,,,0,35,35,15,1829.154419700004,,22,Male,Right handed,Normal,,,,,,,,,,,,,,,,,,,,,,,,,,,,,,,,,,,,,,,1829.1414227999921,1829.154419700004,1829.154419700004,1829.154419700004,1829.154419700004,1829.154419700004,1829.154419700004,1836.2870305999822,['r'],1,[7.121916300005978],[None],1836.288110900001,1836.3022314999835,1836.3022314999835,1836.3022314999835,1837.5519714999828,2,1.2488967000099365,2,1.2488967000099365,,,,,,,,sub17_NB,001,2026-01-18_10h47.37.200,recognitionstage,,2025.1.1,60.099151586655275,2026-01-18 10h49.12.178414 +0530,
,,36,36,0,11,frames\Vid11_EM_T.png,frames\Vid11_L.png,['l'],1,[2.654961199994432],[None],5,1.082170200010296,,,,,0,36,36,10,1837.6054254999908,,22,Male,Right handed,Normal,,,,,,,,,,,,,,,,,,,,,,,,,,,,,,,,,,,,,,,1837.5943678999902,1837.6054254999908,1837.6054254999908,1837.6054254999908,1837.6054254999908,1837.6054254999908,1837.6054254999908,1840.2703230000043,['l'],1,[2.654961199994432],[None],1840.2712471999985,1840.2852705999976,1840.2852705999976,1840.2852705999976,1841.3692114999867,5,1.082170200010296,5,1.082170200010296,,,,,,,,sub17_NB,001,2026-01-18_10h47.37.200,recognitionstage,,2025.1.1,60.099151586655275,2026-01-18 10h49.12.178414 +0530,
,,37,37,0,18,frames\Vid18_EM_T.png,frames\Vid18_L.png,['l'],1,[3.2403577999793924],[None],5,0.7653480999870226,,,,,0,37,37,17,1841.4040611000091,,22,Male,Right handed,Normal,,,,,,,,,,,,,,,,,,,,,,,,,,,,,,,,,,,,,,,1841.3817247999832,1841.4040611000091,1841.4040611000091,1841.4040611000091,1841.4040611000091,1841.4040611000091,1841.4040611000091,1844.6542973000032,['l'],1,[3.2403577999793924],[None],1844.6553107000072,1844.6681665999931,1844.6681665999931,1844.6681665999931,1845.4357528999972,5,0.7653480999870226,5,0.7653480999870226,,,,,,,,sub17_NB,001,2026-01-18_10h47.37.200,recognitionstage,,2025.1.1,60.099151586655275,2026-01-18 10h49.12.178414 +0530,
,,38,38,0,14,frames\Vid14_BB_T.png,frames\Vid14_L.png,['l'],1,[3.181774900003802],[None],5,0.8810943000135012,,,,,0,38,38,13,1845.5025575000036,,22,Male,Right handed,Normal,,,,,,,,,,,,,,,,,,,,,,,,,,,,,,,,,,,,,,,1845.4827023000107,1845.5025575000036,1845.5025575000036,1845.5025575000036,1845.5025575000036,1845.5025575000036,1845.5025575000036,1848.6874719999905,['l'],1,[3.181774900003802],[None],1848.6883434999909,1848.701924699999,1848.701924699999,1848.701924699999,1849.586476700002,5,0.8810943000135012,5,0.8810943000135012,,,,,,,,sub17_NB,001,2026-01-18_10h47.37.200,recognitionstage,,2025.1.1,60.099151586655275,2026-01-18 10h49.12.178414 +0530,
,,39,39,0,8,frames\Vid8_BB_T.png,frames\Vid8_L.png,['l'],1,[3.3098262999847066],[None],5,0.8314683999924455,,,,,0,39,39,7,1849.6386197999818,,22,Male,Right handed,Normal,,,,,,,,,,,,,,,,,,,,,,,,,,,,,,,,,,,,,,,1849.6237416999938,1849.6386197999818,1849.6386197999818,1849.6386197999818,1849.6386197999818,1849.6386197999818,1849.6386197999818,1852.9544259000104,['l'],1,[3.3098262999847066],[None],1852.9556659999944,1852.9682167999854,1852.9682167999854,1852.9682167999854,1853.8024016999989,5,0.8314683999924455,5,0.8314683999924455,,,,,,,,sub17_NB,001,2026-01-18_10h47.37.200,recognitionstage,,2025.1.1,60.099151586655275,2026-01-18 10h49.12.178414 +0530,
,,,,,,,,,,,,,,,,,,,,,,,,22,Male,Right handed,Normal,,,,,,,,,,,,,,,,,,,,,,,,,,,,,,,,,,,,,,,,,,,,,,,,,,,,,,,,,,,,1853.8025215000089,1853.8192404999863,1853.8192404999863,1873.819791899994,1873.819791899994,1873.8025443000079,None,sub17_NB,001,2026-01-18_10h47.37.200,recognitionstage,,2025.1.1,60.099151586655275,2026-01-18 10h49.12.178414 +0530,
