path,duration,is_repeat,thisN,thisTrialN,thisRepN,movie_id,target_img,lure_img,resp.keys,resp.corr,resp.rt,resp.duration,conf_radio.response,conf_radio.rt,movie.thisRepN,movie.thisTrialN,movie.thisN,movie.thisIndex,recogloop.thisRepN,recogloop.thisTrialN,recogloop.thisN,recogloop.thisIndex,thisRow.t,notes,age,gender,handedness,vision,caffeine_2h,alcohol_smoke_12h,demographics.started,demographics.stopped,Instructions.started,text1.started,key_resp.started,Instructions.stopped,key_resp.keys,key_resp.rt,key_resp.duration,instruction_2.started,text2.started,key_resp_2.started,instruction_2.stopped,key_resp_2.keys,key_resp_2.rt,key_resp_2.duration,Videos.started,movie_2.started,vigilance_resp.started,movie_2.stopped,Videos.stopped,movie.vigilance_resp.keys,vigilance_pressed,vigilance_correct,ISI.started,text.started,ISI.stopped,text.stopped,movie.vigilance_resp.rt,movie.vigilance_resp.duration,recognition.started,text_4.started,key_resp_3.started,recognition.stopped,key_resp_3.keys,key_resp_3.rt,key_resp_3.duration,recognition_task.started,leftimage.started,rightimage.started,resp.started,frames_question.started,right_label.started,left_label.started,recognition_task.stopped,recogloop.resp.keys,recogloop.resp.corr,recogloop.resp.rt,recogloop.resp.duration,confidence.started,conf_text.started,conf_radio.started,conf_label.started,confidence.stopped,recogloop.conf_radio.response,recogloop.conf_radio.rt,confidence,confidence_rt,thank_you.started,text_6.started,key_resp_4.started,text_6.stopped,key_resp_4.stopped,thank_you.stopped,key_resp_4.keys,participant,session,date,expName,expVersion,psychopyVersion,frameRate,expStart,...105
,,,,,,,,,,,,,,,,,,,,,,,,,22,Male,Right handed,Corrected to normal,Caffeine consumed in last 2 hours?,Alcohol or smoking in last 12 hours?,0.01618150000285823,0.018728299997746944,,,,,,,,,,,,,,,,,,,,,,,,,,,,,,,,,,,,,,,,,,,,,,,,,,,,,,,,,,,,,,,,test1,001,2026-02-02_16h12.56.995,recognitionstage,,2025.1.1,60.005388484749616,2026-02-02 16h13.59.265900 +0530,
,,,,,,,,,,,,,,,,,,,,,,,,,22,Male,Right handed,Corrected to normal,,,,,0.01875060000747908,0.03530909999972209,0.03530909999972209,12.519803800008958,space,12.481263299996499,None,,,,,,,,,,,,,,,,,,,,,,,,,,,,,,,,,,,,,,,,,,,,,,,,,,,,,,,,,test1,001,2026-02-02_16h12.56.995,recognitionstage,,2025.1.1,60.005388484749616,2026-02-02 16h13.59.265900 +0530,
,,,,,,,,,,,,,,,,,,,,,,,,,22,Male,Right handed,Corrected to normal,,,,,,,,,,,,12.519864900008542,12.536224900002708,12.536224900002708,24.703572900005383,space,12.155919800003176,None,,,,,,,,,,,,,,,,,,,,,,,,,,,,,,,,,,,,,,,,,,,,,,,,,,test1,001,2026-02-02_16h12.56.995,recognitionstage,,2025.1.1,60.005388484749616,2026-02-02 16h13.59.265900 +0530,
abrupt_videos\abrupt_6.mp4,31,0,44,44,0,,,,,,,,,,0,44,44,6,,,,,1504.6674770999962,,22,Male,Right handed,Corrected to normal,,,,,,,,,,,,,,,,,,,1504.6171555000037,1504.6674770999962,1504.6674770999962,1536.0992608000088,1535.95314350001,None,0,1,1536.0884641000011,1536.0992608000088,1538.585194600004,1538.6016082999995,11.418265800006338,None,1538.5852425000048,1538.6016082999995,1538.6016082999995,1580.553528000004,space,41.938099299994064,None,,,,,,,,,,,,,,,,,,,,,,,,,,,,,test1,001,2026-02-02_16h12.56.995,recognitionstage,,2025.1.1,60.005388484749616,2026-02-02 16h13.59.265900 +0530,
,,,0,0,0,19,frames\Vid19_BB_T.png,frames\Vid19_L.png,['r'],1,[14.116556799999671],[None],2,21.414244599989615,,,,,0,0,0,18,1580.5830118000013,,22,Male,Right handed,Corrected to normal,,,,,,,,,,,,,,,,,,,,,,,,,,,,,,,,,,,,,,,,1580.5715176000085,1580.5830118000013,1580.5830118000013,1580.5830118000013,1580.5830118000013,1580.5830118000013,1580.5830118000013,1594.703221200005,['r'],1,[14.116556799999671],[None],1594.7041927999962,1594.7175285999983,1594.7175285999983,1594.7175285999983,1616.1351088000083,2,21.414244599989615,2,21.414244599989615,,,,,,,,test1,001,2026-02-02_16h12.56.995,recognitionstage,,2025.1.1,60.005388484749616,2026-02-02 16h13.59.265900 +0530,
,,,1,1,0,15,frames\Vid15_BB_T.png,frames\Vid15_L.png,['r'],1,[11.123717399997986],[None],5,4.314590699999826,,,,,0,1,1,14,1616.2000215000007,,22,Male,Right handed,Corrected to normal,,,,,,,,,,,,,,,,,,,,,,,,,,,,,,,,,,,,,,,,1616.187638000003,1616.2000215000007,1616.2000215000007,1616.2000215000007,1616.2000215000007,1616.2000215000007,1616.2000215000007,1627.3368213000067,['r'],1,[11.123717399997986],[None],1627.3379418999975,1627.3512181999977,1627.3512181999977,1627.3512181999977,1631.6686753000104,5,4.314590699999826,5,4.314590699999826,,,,,,,,test1,001,2026-02-02_16h12.56.995,recognitionstage,,2025.1.1,60.005388484749616,2026-02-02 16h13.59.265900 +0530,
,,,2,2,0,7,frames\Vid7_EM_T.png,frames\Vid7_L.png,['r'],1,[3.5826059999963036],[None],5,2.964166399993701,,,,,0,2,2,6,1631.7331285999971,,22,Male,Right handed,Corrected to normal,,,,,,,,,,,,,,,,,,,,,,,,,,,,,,,,,,,,,,,,1631.7269954000076,1631.7331285999971,1631.7331285999971,1631.7331285999971,1631.7331285999971,1631.7331285999971,1631.7331285999971,1635.320652399998,['r'],1,[3.5826059999963036],[None],1635.321679200002,1635.3341738000017,1635.3341738000017,1635.3341738000017,1638.3018638000067,5,2.964166399993701,5,2.964166399993701,,,,,,,,test1,001,2026-02-02_16h12.56.995,recognitionstage,,2025.1.1,60.005388484749616,2026-02-02 16h13.59.265900 +0530,
,,,3,3,0,8,frames\Vid8_BB_T.png,frames\Vid8_L.png,['r'],1,[4.1057677999924636],[None],5,1.8480693000019528,,,,,0,3,3,7,1638.3538333000033,,22,Male,Right handed,Corrected to normal,,,,,,,,,,,,,,,,,,,,,,,,,,,,,,,,,,,,,,,,1638.339624900007,1638.3538333000033,1638.3538333000033,1638.3538333000033,1638.3538333000033,1638.3538333000033,1638.3538333000033,1642.4703154000017,['r'],1,[4.1057677999924636],[None],1642.471188399999,1642.4994230000011,1642.4994230000011,1642.4994230000011,1644.3351110000076,5,1.8480693000019528,5,1.8480693000019528,,,,,,,,test1,001,2026-02-02_16h12.56.995,recognitionstage,,2025.1.1,60.005388484749616,2026-02-02 16h13.59.265900 +0530,
,,,4,4,0,38,frames\Vid38_EM_T.png,frames\Vid38_L.png,['r'],1,[6.623828100011451],[None],2,2.9800951999932295,,,,,0,4,4,37,1644.3558954000036,,22,Male,Right handed,Corrected to normal,,,,,,,,,,,,,,,,,,,,,,,,,,,,,,,,,,,,,,,,1644.345014999999,1644.3558954000036,1644.3558954000036,1644.3558954000036,1644.3558954000036,1644.3558954000036,1644.3558954000036,1650.9872821000026,['r'],1,[6.623828100011451],[None],1650.9884078000032,1651.0009573999996,1651.0009573999996,1651.0009573999996,1653.98565100001,2,2.9800951999932295,2,2.9800951999932295,,,,,,,,test1,001,2026-02-02_16h12.56.995,recognitionstage,,2025.1.1,60.005388484749616,2026-02-02 16h13.59.265900 +0530,
,,,5,5,0,6,frames\Vid6_BB_T.png,frames\Vid6_L.png,['r'],1,[3.336381999994046],[None],5,2.0479333999974187,,,,,0,5,5,5,1654.0353000000032,,22,Male,Right handed,Corrected to normal,,,,,,,,,,,,,,,,,,,,,,,,,,,,,,,,,,,,,,,,1654.028691600004,1654.0353000000032,1654.0353000000032,1654.0353000000032,1654.0353000000032,1654.0353000000032,1654.0353000000032,1657.3871762000053,['r'],1,[3.336381999994046],[None],1657.3881034000078,1657.4008933000005,1657.4008933000005,1657.4008933000005,1659.4519191,5,2.0479333999974187,5,2.0479333999974187,,,,,,,,test1,001,2026-02-02_16h12.56.995,recognitionstage,,2025.1.1,60.005388484749616,2026-02-02 16h13.59.265900 +0530,
,,,6,6,0,30,frames\Vid30_EM_T.png,frames\Vid30_L.png,['l'],0,[15.603145600005519],[None],3,3.9314053999987664,,,,,0,6,6,29,1659.472400300001,,22,Male,Right handed,Corrected to normal,,,,,,,,,,,,,,,,,,,,,,,,,,,,,,,,,,,,,,,,1659.4618704000022,1659.472400300001,1659.472400300001,1659.472400300001,1659.472400300001,1659.472400300001,1659.472400300001,1675.0865821000043,['l'],0,[15.603145600005519],[None],1675.0875265000068,1675.1008740999969,1675.1008740999969,1675.1008740999969,1679.0348223000037,3,3.9314053999987664,3,3.9314053999987664,,,,,,,,test1,001,2026-02-02_16h12.56.995,recognitionstage,,2025.1.1,60.005388484749616,2026-02-02 16h13.59.265900 +0530,
,,,7,7,0,4,frames\Vid4_EM_T.png,frames\Vid4_L.png,['r'],0,[8.805949800007511],[None],5,1.5642949000030058,,,,,0,7,7,3,1679.1015778,,22,Male,Right handed,Corrected to normal,,,,,,,,,,,,,,,,,,,,,,,,,,,,,,,,,,,,,,,,1679.080002200004,1679.1015778,1679.1015778,1679.1015778,1679.1015778,1679.1015778,1679.1015778,1687.9206217000028,['r'],0,[8.805949800007511],[None],1687.9215795000055,1687.934108500005,1687.934108500005,1687.934108500005,1689.5013880000042,5,1.5642949000030058,5,1.5642949000030058,,,,,,,,test1,001,2026-02-02_16h12.56.995,recognitionstage,,2025.1.1,60.005388484749616,2026-02-02 16h13.59.265900 +0530,
,,,8,8,0,33,frames\Vid33_BB_T.png,frames\Vid33_L.png,['l'],1,[7.408740099999704],[None],4,2.3986443000030704,,,,,0,8,8,32,1689.5227585999965,,22,Male,Right handed,Corrected to normal,,,,,,,,,,,,,,,,,,,,,,,,,,,,,,,,,,,,,,,,1689.5113571999973,1689.5227585999965,1689.5227585999965,1689.5227585999965,1689.5227585999965,1689.5227585999965,1689.5227585999965,1696.935781799999,['l'],1,[7.408740099999704],[None],1696.936397700003,1696.95126110001,1696.95126110001,1696.95126110001,1699.3518333999964,4,2.3986443000030704,4,2.3986443000030704,,,,,,,,test1,001,2026-02-02_16h12.56.995,recognitionstage,,2025.1.1,60.005388484749616,2026-02-02 16h13.59.265900 +0530,
,,,9,9,0,10,frames\Vid10_BB_T.png,frames\Vid10_L.png,['l'],1,[9.465846200007945],[None],5,1.9965946999873267,,,,,0,9,9,9,1699.401887800006,,22,Male,Right handed,Corrected to normal,,,,,,,,,,,,,,,,,,,,,,,,,,,,,,,,,,,,,,,,1699.3951995000098,1699.401887800006,1699.401887800006,1699.401887800006,1699.401887800006,1699.401887800006,1699.401887800006,1708.8706235999998,['l'],1,[9.465846200007945],[None],1708.871891600007,1708.8846746000054,1708.8846746000054,1708.8846746000054,1710.8851179000048,5,1.9965946999873267,5,1.9965946999873267,,,,,,,,test1,001,2026-02-02_16h12.56.995,recognitionstage,,2025.1.1,60.005388484749616,2026-02-02 16h13.59.265900 +0530,
,,,10,10,0,36,frames\Vid36_BB_T.png,frames\Vid36_L.png,['r'],1,[15.11457029999292],[None],3,3.8149787000002107,,,,,0,10,10,35,1710.9209068000055,,22,Male,Right handed,Corrected to normal,,,,,,,,,,,,,,,,,,,,,,,,,,,,,,,,,,,,,,,,1710.8989157000033,1710.9209068000055,1710.9209068000055,1710.9209068000055,1710.9209068000055,1710.9209068000055,1710.9209068000055,1726.0362890999968,['r'],1,[15.11457029999292],[None],1726.036983900005,1726.0507556000084,1726.0507556000084,1726.0507556000084,1729.8683852999966,3,3.8149787000002107,3,3.8149787000002107,,,,,,,,test1,001,2026-02-02_16h12.56.995,recognitionstage,,2025.1.1,60.005388484749616,2026-02-02 16h13.59.265900 +0530,
,,,11,11,0,16,frames\Vid16_EM_T.png,frames\Vid16_L.png,['l'],1,[4.3649802999862],[None],5,1.680975600000238,,,,,0,11,11,15,1729.9189212000056,,22,Male,Right handed,Corrected to normal,,,,,,,,,,,,,,,,,,,,,,,,,,,,,,,,,,,,,,,,1729.9074789000006,1729.9189212000056,1729.9189212000056,1729.9189212000056,1729.9189212000056,1729.9189212000056,1729.9189212000056,1734.287040299998,['l'],1,[4.3649802999862],[None],1734.2882750999997,1734.3010633000085,1734.3010633000085,1734.3010633000085,1735.9851236000104,5,1.680975600000238,5,1.680975600000238,,,,,,,,test1,001,2026-02-02_16h12.56.995,recognitionstage,,2025.1.1,60.005388484749616,2026-02-02 16h13.59.265900 +0530,
,,,12,12,0,12,frames\Vid12_EM_T.png,frames\Vid12_L.png,['r'],1,[7.108724300007452],[None],5,1.5314368999970611,,,,,0,12,12,11,1736.0550015000044,,22,Male,Right handed,Corrected to normal,,,,,,,,,,,,,,,,,,,,,,,,,,,,,,,,,,,,,,,,1736.0290653999982,1736.0550015000044,1736.0550015000044,1736.0550015000044,1736.0550015000044,1736.0550015000044,1736.0550015000044,1743.1700901000004,['r'],1,[7.108724300007452],[None],1743.1712178000016,1743.184098800004,1743.184098800004,1743.184098800004,1744.7180054000055,5,1.5314368999970611,5,1.5314368999970611,,,,,,,,test1,001,2026-02-02_16h12.56.995,recognitionstage,,2025.1.1,60.005388484749616,2026-02-02 16h13.59.265900 +0530,
,,,13,13,0,5,frames\Vid5_EM_T.png,frames\Vid5_L.png,['l'],1,[10.064492000004975],[None],4,2.6641159999999218,,,,,0,13,13,4,1744.7710909000016,,22,Male,Right handed,Corrected to normal,,,,,,,,,,,,,,,,,,,,,,,,,,,,,,,,,,,,,,,,1744.7481384999992,1744.7710909000016,1744.7710909000016,1744.7710909000016,1744.7710909000016,1744.7710909000016,1744.7710909000016,1754.8364003000024,['l'],1,[10.064492000004975],[None],1754.8376941000024,1754.852193300001,1754.852193300001,1754.852193300001,1757.5186541000003,4,2.6641159999999218,4,2.6641159999999218,,,,,,,,test1,001,2026-02-02_16h12.56.995,recognitionstage,,2025.1.1,60.005388484749616,2026-02-02 16h13.59.265900 +0530,
,,,14,14,0,35,frames\Vid35_EM_T.png,frames\Vid35_L.png,['l'],1,[3.4176107999956002],[None],5,1.648375600008876,,,,,0,14,14,34,1757.5378679999994,,22,Male,Right handed,Corrected to normal,,,,,,,,,,,,,,,,,,,,,,,,,,,,,,,,,,,,,,,,1757.527476400006,1757.5378679999994,1757.5378679999994,1757.5378679999994,1757.5378679999994,1757.5378679999994,1757.5378679999994,1760.969738700005,['l'],1,[3.4176107999956002],[None],1760.970768900006,1760.9844254000054,1760.9844254000054,1760.9844254000054,1762.6351418999984,5,1.648375600008876,5,1.648375600008876,,,,,,,,test1,001,2026-02-02_16h12.56.995,recognitionstage,,2025.1.1,60.005388484749616,2026-02-02 16h13.59.265900 +0530,
,,,15,15,0,28,frames\Vid28_EM_T.png,frames\Vid28_L.png,['l'],1,[5.358811899990542],[None],5,0.9311545999953523,,,,,0,15,15,27,1762.6527848999976,,22,Male,Right handed,Corrected to normal,,,,,,,,,,,,,,,,,,,,,,,,,,,,,,,,,,,,,,,,1762.6453238999966,1762.6527848999976,1762.6527848999976,1762.6527848999976,1762.6527848999976,1762.6527848999976,1762.6527848999976,1768.0207564000011,['l'],1,[5.358811899990542],[None],1768.0218677000084,1768.0341291000077,1768.0341291000077,1768.0341291000077,1768.9681234000018,5,0.9311545999953523,5,0.9311545999953523,,,,,,,,test1,001,2026-02-02_16h12.56.995,recognitionstage,,2025.1.1,60.005388484749616,2026-02-02 16h13.59.265900 +0530,
,,,16,16,0,18,frames\Vid18_EM_T.png,frames\Vid18_L.png,['r'],1,[8.393008900005952],[None],1,2.6324912999989465,,,,,0,16,16,17,1768.986630200001,,22,Male,Right handed,Corrected to normal,,,,,,,,,,,,,,,,,,,,,,,,,,,,,,,,,,,,,,,,1768.9786853999976,1768.986630200001,1768.986630200001,1768.986630200001,1768.986630200001,1768.986630200001,1768.986630200001,1777.3865137000103,['r'],1,[8.393008900005952],[None],1777.3873701999983,1777.4009433000028,1777.4009433000028,1777.4009433000028,1780.0348492000048,1,2.6324912999989465,1,2.6324912999989465,,,,,,,,test1,001,2026-02-02_16h12.56.995,recognitionstage,,2025.1.1,60.005388484749616,2026-02-02 16h13.59.265900 +0530,
,,,17,17,0,39,frames\Vid39_BB_T.png,frames\Vid39_L.png,['r'],1,[7.3344707999931416],[None],2,2.5960284000029787,,,,,0,17,17,38,1780.0531498000055,,22,Male,Right handed,Corrected to normal,,,,,,,,,,,,,,,,,,,,,,,,,,,,,,,,,,,,,,,,1780.042496199996,1780.0531498000055,1780.0531498000055,1780.0531498000055,1780.0531498000055,1780.0531498000055,1780.0531498000055,1787.3883198999974,['r'],1,[7.3344707999931416],[None],1787.3894319999963,1787.4008503000077,1787.4008503000077,1787.4008503000077,1790.0016914000007,2,2.5960284000029787,2,2.5960284000029787,,,,,,,,test1,001,2026-02-02_16h12.56.995,recognitionstage,,2025.1.1,60.005388484749616,2026-02-02 16h13.59.265900 +0530,
,,,18,18,0,25,frames\Vid25_BB_T.png,frames\Vid25_L.png,['r'],0,[9.44934920000378],[None],4,2.131572000012966,,,,,0,18,18,24,1790.0342504,,22,Male,Right handed,Corrected to normal,,,,,,,,,,,,,,,,,,,,,,,,,,,,,,,,,,,,,,,,1790.012189000001,1790.0342504,1790.0342504,1790.0342504,1790.0342504,1790.0342504,1790.0342504,1799.4863014000002,['r'],0,[9.44934920000378],[None],1799.487103899999,1799.5007607000007,1799.5007607000007,1799.5007607000007,1801.6346602999984,4,2.131572000012966,4,2.131572000012966,,,,,,,,test1,001,2026-02-02_16h12.56.995,recognitionstage,,2025.1.1,60.005388484749616,2026-02-02 16h13.59.265900 +0530,
,,,19,19,0,1,frames\Vid1_EM_T.png,frames\Vid1_L.png,['l'],1,[6.885889600001974],[None],5,2.063915500009898,,,,,0,19,19,0,1801.701722400001,,22,Male,Right handed,Corrected to normal,,,,,,,,,,,,,,,,,,,,,,,,,,,,,,,,,,,,,,,,1801.6813356000057,1801.701722400001,1801.701722400001,1801.701722400001,1801.701722400001,1801.701722400001,1801.701722400001,1808.6033054,['l'],1,[6.885889600001974],[None],1808.6043759000022,1808.6177698000101,1808.6177698000101,1808.6177698000101,1810.6856821999972,5,2.063915500009898,5,2.063915500009898,,,,,,,,test1,001,2026-02-02_16h12.56.995,recognitionstage,,2025.1.1,60.005388484749616,2026-02-02 16h13.59.265900 +0530,
,,,20,20,0,29,frames\Vid29_BB_T.png,frames\Vid29_L.png,['l'],1,[6.2107308999984525],[None],3,2.232010799998534,,,,,0,20,20,28,1810.7207168000023,,22,Male,Right handed,Corrected to normal,,,,,,,,,,,,,,,,,,,,,,,,,,,,,,,,,,,,,,,,1810.6994154999993,1810.7207168000023,1810.7207168000023,1810.7207168000023,1810.7207168000023,1810.7207168000023,1810.7207168000023,1816.9367141999974,['l'],1,[6.2107308999984525],[None],1816.937688200007,1816.9507109999977,1816.9507109999977,1816.9507109999977,1819.1853869000042,3,2.232010799998534,3,2.232010799998534,,,,,,,,test1,001,2026-02-02_16h12.56.995,recognitionstage,,2025.1.1,60.005388484749616,2026-02-02 16h13.59.265900 +0530,
,,,21,21,0,3,frames\Vid3_BB_T.png,frames\Vid3_L.png,['l'],1,[3.1126334000000497],[None],5,1.5132544000080088,,,,,0,21,21,2,1819.2349808,,22,Male,Right handed,Corrected to normal,,,,,,,,,,,,,,,,,,,,,,,,,,,,,,,,,,,,,,,,1819.2240438000008,1819.2349808,1819.2349808,1819.2349808,1819.2349808,1819.2349808,1819.2349808,1822.3543127000012,['l'],1,[3.1126334000000497],[None],1822.3555443000078,1822.3673512000096,1822.3673512000096,1822.3673512000096,1823.8853439000086,5,1.5132544000080088,5,1.5132544000080088,,,,,,,,test1,001,2026-02-02_16h12.56.995,recognitionstage,,2025.1.1,60.005388484749616,2026-02-02 16h13.59.265900 +0530,
,,,22,22,0,9,frames\Vid9_EM_T.png,frames\Vid9_L.png,['l'],0,[6.433945500000846],[None],2,1.5627721000055317,,,,,0,22,22,8,1823.9375759999966,,22,Male,Right handed,Corrected to normal,,,,,,,,,,,,,,,,,,,,,,,,,,,,,,,,,,,,,,,,1823.9231854999962,1823.9375759999966,1823.9375759999966,1823.9375759999966,1823.9375759999966,1823.9375759999966,1823.9375759999966,1830.3879268000019,['l'],0,[6.433945500000846],[None],1830.3892007999966,1830.415830500002,1830.415830500002,1830.415830500002,1831.9692081999965,2,1.5627721000055317,2,1.5627721000055317,,,,,,,,test1,001,2026-02-02_16h12.56.995,recognitionstage,,2025.1.1,60.005388484749616,2026-02-02 16h13.59.265900 +0530,
,,,23,23,0,40,frames\Vid40_EM_T.png,frames\Vid40_L.png,['r'],1,[12.583419999995385],[None],4,1.5147642999945674,,,,,0,23,23,39,1831.9882574000076,,22,Male,Right handed,Corrected to normal,,,,,,,,,,,,,,,,,,,,,,,,,,,,,,,,,,,,,,,,1831.9783403000038,1831.9882574000076,1831.9882574000076,1831.9882574000076,1831.9882574000076,1831.9882574000076,1831.9882574000076,1844.586338699999,['r'],1,[12.583419999995385],[None],1844.587398100004,1844.6011930000095,1844.6011930000095,1844.6011930000095,1846.1184207000042,4,1.5147642999945674,4,1.5147642999945674,,,,,,,,test1,001,2026-02-02_16h12.56.995,recognitionstage,,2025.1.1,60.005388484749616,2026-02-02 16h13.59.265900 +0530,
,,,24,24,0,2,frames\Vid2_BB_T.png,frames\Vid2_L.png,['r'],1,[6.723374599998351],[None],5,1.431830199988326,,,,,0,24,24,1,1846.1682308000018,,22,Male,Right handed,Corrected to normal,,,,,,,,,,,,,,,,,,,,,,,,,,,,,,,,,,,,,,,,1846.1573800000042,1846.1682308000018,1846.1682308000018,1846.1682308000018,1846.1682308000018,1846.1682308000018,1846.1682308000018,1852.9024864000094,['r'],1,[6.723374599998351],[None],1852.90337130001,1852.9178907000023,1852.9178907000023,1852.9178907000023,1854.3525748000102,5,1.431830199988326,5,1.431830199988326,,,,,,,,test1,001,2026-02-02_16h12.56.995,recognitionstage,,2025.1.1,60.005388484749616,2026-02-02 16h13.59.265900 +0530,
,,,25,25,0,13,frames\Vid13_BB_T.png,frames\Vid13_L.png,['r'],0,[4.694667100004153],[None],5,1.5491347000061069,,,,,0,25,25,12,1854.4048631000041,,22,Male,Right handed,Corrected to normal,,,,,,,,,,,,,,,,,,,,,,,,,,,,,,,,,,,,,,,,1854.3857234000025,1854.4048631000041,1854.4048631000041,1854.4048631000041,1854.4048631000041,1854.4048631000041,1854.4048631000041,1859.102796799998,['r'],0,[4.694667100004153],[None],1859.1039433999977,1859.1178241000016,1859.1178241000016,1859.1178241000016,1860.6682607999974,5,1.5491347000061069,5,1.5491347000061069,,,,,,,,test1,001,2026-02-02_16h12.56.995,recognitionstage,,2025.1.1,60.005388484749616,2026-02-02 16h13.59.265900 +0530,
,,,26,26,0,27,frames\Vid27_BB_T.png,frames\Vid27_L.png,['r'],1,[7.395997699990403],[None],3,1.682329799994477,,,,,0,26,26,26,1860.7034628999972,,22,Male,Right handed,Corrected to normal,,,,,,,,,,,,,,,,,,,,,,,,,,,,,,,,,,,,,,,,1860.6790839000023,1860.7034628999972,1860.7034628999972,1860.7034628999972,1860.7034628999972,1860.7034628999972,1860.7034628999972,1868.1026880999998,['r'],1,[7.395997699990403],[None],1868.103725100009,1868.1178632000083,1868.1178632000083,1868.1178632000083,1869.8017602000036,3,1.682329799994477,3,1.682329799994477,,,,,,,,test1,001,2026-02-02_16h12.56.995,recognitionstage,,2025.1.1,60.005388484749616,2026-02-02 16h13.59.265900 +0530,
,,,27,27,0,20,frames\Vid20_EM_T.png,frames\Vid20_L.png,['l'],1,[3.640247700008331],[None],5,1.2155277999991085,,,,,0,27,27,19,1869.8193513000006,,22,Male,Right handed,Corrected to normal,,,,,,,,,,,,,,,,,,,,,,,,,,,,,,,,,,,,,,,,1869.8082357000094,1869.8193513000006,1869.8193513000006,1869.8193513000006,1869.8193513000006,1869.8193513000006,1869.8193513000006,1873.4693270999996,['l'],1,[3.640247700008331],[None],1873.470150100009,1873.4845519000082,1873.4845519000082,1873.4845519000082,1874.7020368000085,5,1.2155277999991085,5,1.2155277999991085,,,,,,,,test1,001,2026-02-02_16h12.56.995,recognitionstage,,2025.1.1,60.005388484749616,2026-02-02 16h13.59.265900 +0530,
,,,28,28,0,37,frames\Vid37_BB_T.png,frames\Vid37_L.png,['r'],1,[4.005520399994566],[None],5,1.6981156999972882,,,,,0,28,28,36,1874.7339874000027,,22,Male,Right handed,Corrected to normal,,,,,,,,,,,,,,,,,,,,,,,,,,,,,,,,,,,,,,,,1874.7145635000052,1874.7339874000027,1874.7339874000027,1874.7339874000027,1874.7339874000027,1874.7339874000027,1874.7339874000027,1878.753718699998,['r'],1,[4.005520399994566],[None],1878.754733499998,1878.767326900008,1878.767326900008,1878.767326900008,1880.4679853999987,5,1.6981156999972882,5,1.6981156999972882,,,,,,,,test1,001,2026-02-02_16h12.56.995,recognitionstage,,2025.1.1,60.005388484749616,2026-02-02 16h13.59.265900 +0530,
,,,29,29,0,11,frames\Vid11_EM_T.png,frames\Vid11_L.png,['r'],1,[4.549423600008595],[None],5,1.8994463999988511,,,,,0,29,29,10,1880.5181306000013,,22,Male,Right handed,Corrected to normal,,,,,,,,,,,,,,,,,,,,,,,,,,,,,,,,,,,,,,,,1880.5096769000083,1880.5181306000013,1880.5181306000013,1880.5181306000013,1880.5181306000013,1880.5181306000013,1880.5181306000013,1885.0694360000052,['r'],1,[4.549423600008595],[None],1885.0702575000032,1885.0839735000045,1885.0839735000045,1885.0839735000045,1886.9852135999972,5,1.8994463999988511,5,1.8994463999988511,,,,,,,,test1,001,2026-02-02_16h12.56.995,recognitionstage,,2025.1.1,60.005388484749616,2026-02-02 16h13.59.265900 +0530,
,,,30,30,0,17,frames\Vid17_BB_T.png,frames\Vid17_L.png,['r'],1,[7.127602699998533],[None],5,1.3463612000050489,,,,,0,30,30,16,1887.0201556999964,,22,Male,Right handed,Corrected to normal,,,,,,,,,,,,,,,,,,,,,,,,,,,,,,,,,,,,,,,,1887.0113241000072,1887.0201556999964,1887.0201556999964,1887.0201556999964,1887.0201556999964,1887.0201556999964,1887.0201556999964,1894.1548047000106,['r'],1,[7.127602699998533],[None],1894.1563504000078,1894.183110500002,1894.183110500002,1894.183110500002,1895.5184876999992,5,1.3463612000050489,5,1.3463612000050489,,,,,,,,test1,001,2026-02-02_16h12.56.995,recognitionstage,,2025.1.1,60.005388484749616,2026-02-02 16h13.59.265900 +0530,
,,,31,31,0,32,frames\Vid32_EM_T.png,frames\Vid32_L.png,['r'],1,[5.283351600010064],[None],5,1.7472129999950994,,,,,0,31,31,31,1895.5521349000046,,22,Male,Right handed,Corrected to normal,,,,,,,,,,,,,,,,,,,,,,,,,,,,,,,,,,,,,,,,1895.5322052999982,1895.5521349000046,1895.5521349000046,1895.5521349000046,1895.5521349000046,1895.5521349000046,1895.5521349000046,1900.837446000005,['r'],1,[5.283351600010064],[None],1900.8384622000012,1900.8508128999965,1900.8508128999965,1900.8508128999965,1902.6020473000099,5,1.7472129999950994,5,1.7472129999950994,,,,,,,,test1,001,2026-02-02_16h12.56.995,recognitionstage,,2025.1.1,60.005388484749616,2026-02-02 16h13.59.265900 +0530,
,,,32,32,0,24,frames\Vid24_BB_T.png,frames\Vid24_L.png,['l'],1,[5.712836399994558],[None],5,2.7806998000014573,,,,,0,32,32,23,1902.634701300005,,22,Male,Right handed,Corrected to normal,,,,,,,,,,,,,,,,,,,,,,,,,,,,,,,,,,,,,,,,1902.616296200009,1902.634701300005,1902.634701300005,1902.634701300005,1902.634701300005,1902.634701300005,1902.634701300005,1908.3537802000064,['l'],1,[5.712836399994558],[None],1908.3546818000032,1908.3678743000055,1908.3678743000055,1908.3678743000055,1911.1526073999994,5,2.7806998000014573,5,2.7806998000014573,,,,,,,,test1,001,2026-02-02_16h12.56.995,recognitionstage,,2025.1.1,60.005388484749616,2026-02-02 16h13.59.265900 +0530,
,,,33,33,0,34,frames\Vid34_BB_T.png,frames\Vid34_L.png,['l'],1,[5.027164200000698],[None],5,4.598153499988257,,,,,0,33,33,33,1911.1843985000014,,22,Male,Right handed,Corrected to normal,,,,,,,,,,,,,,,,,,,,,,,,,,,,,,,,,,,,,,,,1911.1632873000053,1911.1843985000014,1911.1843985000014,1911.1843985000014,1911.1843985000014,1911.1843985000014,1911.1843985000014,1916.2196242000064,['l'],1,[5.027164200000698],[None],1916.2204102000105,1916.2350433000101,1916.2350433000101,1916.2350433000101,1920.835535300008,5,4.598153499988257,5,4.598153499988257,,,,,,,,test1,001,2026-02-02_16h12.56.995,recognitionstage,,2025.1.1,60.005388484749616,2026-02-02 16h13.59.265900 +0530,
,,,34,34,0,31,frames\Vid31_EM_T.png,frames\Vid31_L.png,['l'],1,[2.902825800003484],[None],5,1.014975099998992,,,,,0,34,34,30,1920.8525992000068,,22,Male,Right handed,Corrected to normal,,,,,,,,,,,,,,,,,,,,,,,,,,,,,,,,,,,,,,,,1920.8439744000061,1920.8525992000068,1920.8525992000068,1920.8525992000068,1920.8525992000068,1920.8525992000068,1920.8525992000068,1923.7694622999988,['l'],1,[2.902825800003484],[None],1923.7703030999983,1923.7840236000047,1923.7840236000047,1923.7840236000047,1924.8022559000092,5,1.014975099998992,5,1.014975099998992,,,,,,,,test1,001,2026-02-02_16h12.56.995,recognitionstage,,2025.1.1,60.005388484749616,2026-02-02 16h13.59.265900 +0530,
,,,35,35,0,14,frames\Vid14_BB_T.png,frames\Vid14_L.png,['l'],1,[6.32749120000517],[None],5,2.382171599994763,,,,,0,35,35,13,1924.8680185999983,,22,Male,Right handed,Corrected to normal,,,,,,,,,,,,,,,,,,,,,,,,,,,,,,,,,,,,,,,,1924.8503153000056,1924.8680185999983,1924.8680185999983,1924.8680185999983,1924.8680185999983,1924.8680185999983,1924.8680185999983,1931.202405300006,['l'],1,[6.32749120000517],[None],1931.2032976000046,1931.217952100007,1931.217952100007,1931.217952100007,1933.6018312000087,5,2.382171599994763,5,2.382171599994763,,,,,,,,test1,001,2026-02-02_16h12.56.995,recognitionstage,,2025.1.1,60.005388484749616,2026-02-02 16h13.59.265900 +0530,
,,,36,36,0,26,frames\Vid26_EM_T.png,frames\Vid26_L.png,['l'],1,[2.559056199999759],[None],5,0.8984842000063509,,,,,0,36,36,25,1933.6366857000103,,22,Male,Right handed,Corrected to normal,,,,,,,,,,,,,,,,,,,,,,,,,,,,,,,,,,,,,,,,1933.616714200005,1933.6366857000103,1933.6366857000103,1933.6366857000103,1933.6366857000103,1933.6366857000103,1933.6366857000103,1936.2023672000068,['l'],1,[2.559056199999759],[None],1936.2032260999986,1936.2177765000088,1936.2177765000088,1936.2177765000088,1937.1191618000012,5,0.8984842000063509,5,0.8984842000063509,,,,,,,,test1,001,2026-02-02_16h12.56.995,recognitionstage,,2025.1.1,60.005388484749616,2026-02-02 16h13.59.265900 +0530,
,,,37,37,0,22,frames\Vid22_EM_T.png,frames\Vid22_L.png,['l'],1,[1.8765600999904564],[None],5,0.5981387999927392,,,,,0,37,37,21,1937.1509112000058,,22,Male,Right handed,Corrected to normal,,,,,,,,,,,,,,,,,,,,,,,,,,,,,,,,,,,,,,,,1937.133509899999,1937.1509112000058,1937.1509112000058,1937.1509112000058,1937.1509112000058,1937.1509112000058,1937.1509112000058,1939.0366393000004,['l'],1,[1.8765600999904564],[None],1939.0375085999985,1939.050713100005,1939.050713100005,1939.050713100005,1939.651893400005,5,0.5981387999927392,5,0.5981387999927392,,,,,,,,test1,001,2026-02-02_16h12.56.995,recognitionstage,,2025.1.1,60.005388484749616,2026-02-02 16h13.59.265900 +0530,
,,,38,38,0,21,frames\Vid21_BB_T.png,frames\Vid21_L.png,['l'],1,[12.16743580000184],[None],5,1.4155309000052512,,,,,0,38,38,20,1939.6841161000048,,22,Male,Right handed,Corrected to normal,,,,,,,,,,,,,,,,,,,,,,,,,,,,,,,,,,,,,,,,1939.665134499999,1939.6841161000048,1939.6841161000048,1939.6841161000048,1939.6841161000048,1939.6841161000048,1939.6841161000048,1951.8523028000054,['l'],1,[12.16743580000184],[None],1951.8531121999986,1951.8678233999963,1951.8678233999963,1951.8678233999963,1953.2846592999995,5,1.4155309000052512,5,1.4155309000052512,,,,,,,,test1,001,2026-02-02_16h12.56.995,recognitionstage,,2025.1.1,60.005388484749616,2026-02-02 16h13.59.265900 +0530,
,,,39,39,0,23,frames\Vid23_EM_T.png,frames\Vid23_L.png,['l'],1,[8.109839400000055],[None],2,3.732015899993712,,,,,0,39,39,22,1953.3177161000058,,22,Male,Right handed,Corrected to normal,,,,,,,,,,,,,,,,,,,,,,,,,,,,,,,,,,,,,,,,1953.3012968999974,1953.3177161000058,1953.3177161000058,1953.3177161000058,1953.3177161000058,1953.3177161000058,1953.3177161000058,1961.4365394000051,['l'],1,[8.109839400000055],[None],1961.4374857000075,1961.450765600006,1961.450765600006,1961.450765600006,1965.1851213000045,2,3.732015899993712,2,3.732015899993712,,,,,,,,test1,001,2026-02-02_16h12.56.995,recognitionstage,,2025.1.1,60.005388484749616,2026-02-02 16h13.59.265900 +0530,
,,,,,,,,,,,,,,,,,,,,,,,,,22,Male,Right handed,Corrected to normal,,,,,,,,,,,,,,,,,,,,,,,,,,,,,,,,,,,,,,,,,,,,,,,,,,,,,,,,,,,,,1965.1852317000012,1965.201734900009,1965.201734900009,1985.2023991000024,1985.2023991000024,1985.1848548999988,None,test1,001,2026-02-02_16h12.56.995,recognitionstage,,2025.1.1,60.005388484749616,2026-02-02 16h13.59.265900 +0530,
