path,duration,is_repeat,thisN,thisTrialN,thisRepN,movie_id,target_img,lure_img,resp.keys,resp.corr,resp.rt,resp.duration,conf_radio.response,conf_radio.rt,movie.thisRepN,movie.thisTrialN,movie.thisN,movie.thisIndex,recogloop.thisRepN,recogloop.thisTrialN,recogloop.thisN,recogloop.thisIndex,thisRow.t,notes,age,gender,handedness,vision,caffeine_2h,alcohol_smoke_12h,demographics.started,demographics.stopped,Instructions.started,text1.started,key_resp.started,Instructions.stopped,key_resp.keys,key_resp.rt,key_resp.duration,instruction_2.started,text2.started,key_resp_2.started,instruction_2.stopped,key_resp_2.keys,key_resp_2.rt,key_resp_2.duration,Videos.started,movie_2.started,vigilance_resp.started,movie_2.stopped,Videos.stopped,movie.vigilance_resp.keys,vigilance_pressed,vigilance_correct,ISI.started,text.started,ISI.stopped,text.stopped,movie.vigilance_resp.rt,movie.vigilance_resp.duration,recognition.started,text_4.started,key_resp_3.started,recognition.stopped,key_resp_3.keys,key_resp_3.rt,key_resp_3.duration,recognition_task.started,leftimage.started,rightimage.started,resp.started,frames_question.started,right_label.started,left_label.started,recognition_task.stopped,recogloop.resp.keys,recogloop.resp.corr,recogloop.resp.rt,recogloop.resp.duration,confidence.started,conf_text.started,conf_radio.started,conf_label.started,confidence.stopped,recogloop.conf_radio.response,recogloop.conf_radio.rt,confidence,confidence_rt,thank_you.started,text_6.started,key_resp_4.started,thank_you.stopped,key_resp_4.keys,key_resp_4.rt,key_resp_4.duration,participant,session,date,expName,expVersion,psychopyVersion,frameRate,expStart,...105
,,,,,,,,,,,,,,,,,,,,,,,,,23,Male,Right handed,Corrected to normal,Caffeine consumed in last 2 hours?,Alcohol or smoking in last 12 hours?,0.020261699974071234,0.022934800013899803,,,,,,,,,,,,,,,,,,,,,,,,,,,,,,,,,,,,,,,,,,,,,,,,,,,,,,,,,,,,,,,,sub117_AB,001,2026-01-31_20h03.19.142,recognitionstage,,2025.1.1,60.04531018657123,2026-01-31 20h04.13.548418 +0530,
,,,,,,,,,,,,,,,,,,,,,,,,,23,Male,Right handed,Corrected to normal,,,,,0.02295610000146553,0.039485400018747896,0.039485400018747896,6.158648499986157,space,6.117986899975222,None,,,,,,,,,,,,,,,,,,,,,,,,,,,,,,,,,,,,,,,,,,,,,,,,,,,,,,,,,sub117_AB,001,2026-01-31_20h03.19.142,recognitionstage,,2025.1.1,60.04531018657123,2026-01-31 20h04.13.548418 +0530,
,,,,,,,,,,,,,,,,,,,,,,,,,23,Male,Right handed,Corrected to normal,,,,,,,,,,,,6.158740499988198,6.174502199981362,6.174502199981362,14.174722400028259,space,7.99866609997116,None,,,,,,,,,,,,,,,,,,,,,,,,,,,,,,,,,,,,,,,,,,,,,,,,,,sub117_AB,001,2026-01-31_20h03.19.142,recognitionstage,,2025.1.1,60.04531018657123,2026-01-31 20h04.13.548418 +0530,
abrupt_videos\abrupt_40.mp4,49,0,44,44,0,,,,,,,,,,0,44,44,44,,,,,1478.5221443999908,,23,Male,Right handed,Corrected to normal,,,,,,,,,,,,,,,,,,,1478.4667064999812,1478.5221443999908,1478.5221443999908,1528.455217699986,1528.303363599989,None,0,1,1528.4387813999783,1528.455217699986,1530.9412721000263,1478.5221443999908,2.5740833999589086,None,1530.9413552000187,1530.9568030000082,1530.9568030000082,1567.1241246000282,space,36.1527333999984,None,,,,,,,,,,,,,,,,,,,,,,,,,,,,,sub117_AB,001,2026-01-31_20h03.19.142,recognitionstage,,2025.1.1,60.04531018657123,2026-01-31 20h04.13.548418 +0530,
,,,0,0,0,4,frames\Vid4_EM_T.png,frames\Vid4_L.png,['r'],0,[10.017142899974715],[None],5,5.864075099991169,,,,,0,0,0,3,1567.1883209000225,,23,Male,Right handed,Corrected to normal,,,,,,,,,,,,,,,,,,,,,,,,,,,,,,,,,,,,,,,,1567.1770442000125,1567.1883209000225,1567.1883209000225,1567.1883209000225,1567.1883209000225,1567.1883209000225,1567.1883209000225,1577.2082557000103,['r'],0,[10.017142899974715],[None],1577.209277899994,1577.2372773999814,1577.2372773999814,1577.2372773999814,1583.0906436999794,5,5.864075099991169,5,5.864075099991169,,,,,,,,sub117_AB,001,2026-01-31_20h03.19.142,recognitionstage,,2025.1.1,60.04531018657123,2026-01-31 20h04.13.548418 +0530,
,,,1,1,0,17,frames\Vid17_BB_T.png,frames\Vid17_L.png,['r'],1,[6.5547177999978885],[None],4,1.1644187000347301,,,,,0,1,1,16,1583.1547464000178,,23,Male,Right handed,Corrected to normal,,,,,,,,,,,,,,,,,,,,,,,,,,,,,,,,,,,,,,,,1583.1353317999747,1583.1547464000178,1583.1547464000178,1583.1547464000178,1583.1547464000178,1583.1547464000178,1583.1547464000178,1589.724640499975,['r'],1,[6.5547177999978885],[None],1589.7258452000096,1589.7392822999973,1589.7392822999973,1589.7392822999973,1590.907148999977,4,1.1644187000347301,4,1.1644187000347301,,,,,,,,sub117_AB,001,2026-01-31_20h03.19.142,recognitionstage,,2025.1.1,60.04531018657123,2026-01-31 20h04.13.548418 +0530,
,,,2,2,0,9,frames\Vid9_EM_T.png,frames\Vid9_L.png,['r'],1,[6.168097000045236],[None],5,1.3805755999637768,,,,,0,2,2,8,1590.9574592999998,,23,Male,Right handed,Corrected to normal,,,,,,,,,,,,,,,,,,,,,,,,,,,,,,,,,,,,,,,,1590.9453924000263,1590.9574592999998,1590.9574592999998,1590.9574592999998,1590.9574592999998,1590.9574592999998,1590.9574592999998,1597.1415785999852,['r'],1,[6.168097000045236],[None],1597.1425968999974,1597.1555658000289,1597.1555658000289,1597.1555658000289,1598.5404808999738,5,1.3805755999637768,5,1.3805755999637768,,,,,,,,sub117_AB,001,2026-01-31_20h03.19.142,recognitionstage,,2025.1.1,60.04531018657123,2026-01-31 20h04.13.548418 +0530,
,,,3,3,0,36,frames\Vid36_BB_T.png,frames\Vid36_L.png,['l'],1,[2.886407700018026],[None],5,0.9829580999794416,,,,,0,3,3,35,1598.5751038999879,,23,Male,Right handed,Corrected to normal,,,,,,,,,,,,,,,,,,,,,,,,,,,,,,,,,,,,,,,,1598.5530448000063,1598.5751038999879,1598.5751038999879,1598.5751038999879,1598.5751038999879,1598.5751038999879,1598.5751038999879,1601.4736546999775,['l'],1,[2.886407700018026],[None],1601.4743621000089,1601.489393899974,1601.489393899974,1601.489393899974,1602.4732599999988,5,0.9829580999794416,5,0.9829580999794416,,,,,,,,sub117_AB,001,2026-01-31_20h03.19.142,recognitionstage,,2025.1.1,60.04531018657123,2026-01-31 20h04.13.548418 +0530,
,,,4,4,0,23,frames\Vid23_EM_T.png,frames\Vid23_L.png,['l'],1,[2.9638103999895975],[None],4,1.0813643000437878,,,,,0,4,4,22,1602.5058380999835,,23,Male,Right handed,Corrected to normal,,,,,,,,,,,,,,,,,,,,,,,,,,,,,,,,,,,,,,,,1602.4883668000111,1602.5058380999835,1602.5058380999835,1602.5058380999835,1602.5058380999835,1602.5058380999835,1602.5058380999835,1605.474490099994,['l'],1,[2.9638103999895975],[None],1605.4754330000142,1605.4892502999865,1605.4892502999865,1605.4892502999865,1606.5733163999976,4,1.0813643000437878,4,1.0813643000437878,,,,,,,,sub117_AB,001,2026-01-31_20h03.19.142,recognitionstage,,2025.1.1,60.04531018657123,2026-01-31 20h04.13.548418 +0530,
,,,5,5,0,29,frames\Vid29_BB_T.png,frames\Vid29_L.png,['l'],1,[2.7754295999766327],[None],5,1.0152704000356607,,,,,0,5,5,28,1606.6060950999963,,23,Male,Right handed,Corrected to normal,,,,,,,,,,,,,,,,,,,,,,,,,,,,,,,,,,,,,,,,1606.585948700027,1606.6060950999963,1606.6060950999963,1606.6060950999963,1606.6060950999963,1606.6060950999963,1606.6060950999963,1609.3914298000163,['l'],1,[2.7754295999766327],[None],1609.3919105000095,1609.4055622000014,1609.4055622000014,1609.4055622000014,1610.4239226999925,5,1.0152704000356607,5,1.0152704000356607,,,,,,,,sub117_AB,001,2026-01-31_20h03.19.142,recognitionstage,,2025.1.1,60.04531018657123,2026-01-31 20h04.13.548418 +0530,
,,,6,6,0,3,frames\Vid3_BB_T.png,frames\Vid3_L.png,['l'],1,[1.396429900021758],[None],5,1.0637543000048026,,,,,0,6,6,2,1610.473149300029,,23,Male,Right handed,Corrected to normal,,,,,,,,,,,,,,,,,,,,,,,,,,,,,,,,,,,,,,,,1610.464450999978,1610.473149300029,1610.473149300029,1610.473149300029,1610.473149300029,1610.473149300029,1610.473149300029,1611.8746772999875,['l'],1,[1.396429900021758],[None],1611.8760634000064,1611.889457900019,1611.889457900019,1611.889457900019,1612.9570190000231,5,1.0637543000048026,5,1.0637543000048026,,,,,,,,sub117_AB,001,2026-01-31_20h03.19.142,recognitionstage,,2025.1.1,60.04531018657123,2026-01-31 20h04.13.548418 +0530,
,,,7,7,0,7,frames\Vid7_EM_T.png,frames\Vid7_L.png,['r'],1,[3.268737600010354],[None],5,0.6476554999826476,,,,,0,7,7,6,1613.0087369999965,,23,Male,Right handed,Corrected to normal,,,,,,,,,,,,,,,,,,,,,,,,,,,,,,,,,,,,,,,,1612.9995932999882,1613.0087369999965,1613.0087369999965,1613.0087369999965,1613.0087369999965,1613.0087369999965,1613.0087369999965,1616.2914129000274,['r'],1,[3.268737600010354],[None],1616.2923530000262,1616.305439800024,1616.305439800024,1616.305439800024,1616.9566863999935,5,0.6476554999826476,5,0.6476554999826476,,,,,,,,sub117_AB,001,2026-01-31_20h03.19.142,recognitionstage,,2025.1.1,60.04531018657123,2026-01-31 20h04.13.548418 +0530,
,,,8,8,0,8,frames\Vid8_BB_T.png,frames\Vid8_L.png,['l'],1,[4.6446301999967545],[None],5,1.0814762000227347,,,,,0,8,8,7,1617.0088723999797,,23,Male,Right handed,Corrected to normal,,,,,,,,,,,,,,,,,,,,,,,,,,,,,,,,,,,,,,,,1616.997685200011,1617.0088723999797,1617.0088723999797,1617.0088723999797,1617.0088723999797,1617.0088723999797,1617.0088723999797,1621.658004899975,['l'],1,[4.6446301999967545],[None],1621.6588953000028,1621.6720507999999,1621.6720507999999,1621.6720507999999,1622.7566254999838,5,1.0814762000227347,5,1.0814762000227347,,,,,,,,sub117_AB,001,2026-01-31_20h03.19.142,recognitionstage,,2025.1.1,60.04531018657123,2026-01-31 20h04.13.548418 +0530,
,,,9,9,0,34,frames\Vid34_BB_T.png,frames\Vid34_L.png,['r'],1,[2.588588900049217],[None],5,0.7488632000167854,,,,,0,9,9,33,1622.7769020000123,,23,Male,Right handed,Corrected to normal,,,,,,,,,,,,,,,,,,,,,,,,,,,,,,,,,,,,,,,,1622.7660803999752,1622.7769020000123,1622.7769020000123,1622.7769020000123,1622.7769020000123,1622.7769020000123,1622.7769020000123,1625.3740135999979,['r'],1,[2.588588900049217],[None],1625.3750444999896,1625.389292399981,1625.389292399981,1625.389292399981,1626.1397666999837,5,0.7488632000167854,5,0.7488632000167854,,,,,,,,sub117_AB,001,2026-01-31_20h03.19.142,recognitionstage,,2025.1.1,60.04531018657123,2026-01-31 20h04.13.548418 +0530,
,,,10,10,0,38,frames\Vid38_EM_T.png,frames\Vid38_L.png,['l'],1,[7.376950600009877],[None],4,0.7311370000243187,,,,,0,10,10,37,1626.1725333000068,,23,Male,Right handed,Corrected to normal,,,,,,,,,,,,,,,,,,,,,,,,,,,,,,,,,,,,,,,,1626.1518287999788,1626.1725333000068,1626.1725333000068,1626.1725333000068,1626.1725333000068,1626.1725333000068,1626.1725333000068,1633.5579492999823,['l'],1,[7.376950600009877],[None],1633.5592320000287,1633.5722060999833,1633.5722060999833,1633.5722060999833,1634.3061294999789,4,0.7311370000243187,4,0.7311370000243187,,,,,,,,sub117_AB,001,2026-01-31_20h03.19.142,recognitionstage,,2025.1.1,60.04531018657123,2026-01-31 20h04.13.548418 +0530,
,,,11,11,0,31,frames\Vid31_EM_T.png,frames\Vid31_L.png,['r'],1,[2.256932099990081],[None],5,1.16550369997276,,,,,0,11,11,30,1634.3245158999925,,23,Male,Right handed,Corrected to normal,,,,,,,,,,,,,,,,,,,,,,,,,,,,,,,,,,,,,,,,1634.3137633000151,1634.3245158999925,1634.3245158999925,1634.3245158999925,1634.3245158999925,1634.3245158999925,1634.3245158999925,1636.591366800014,['r'],1,[2.256932099990081],[None],1636.5923913000152,1636.6055708000204,1636.6055708000204,1636.6055708000204,1637.7730896000285,5,1.16550369997276,5,1.16550369997276,,,,,,,,sub117_AB,001,2026-01-31_20h03.19.142,recognitionstage,,2025.1.1,60.04531018657123,2026-01-31 20h04.13.548418 +0530,
,,,12,12,0,19,frames\Vid19_BB_T.png,frames\Vid19_L.png,['l'],1,[2.9998452000436373],[None],5,0.715186299989,,,,,0,12,12,18,1637.805592800025,,23,Male,Right handed,Corrected to normal,,,,,,,,,,,,,,,,,,,,,,,,,,,,,,,,,,,,,,,,1637.7849220000207,1637.805592800025,1637.805592800025,1637.805592800025,1637.805592800025,1637.805592800025,1637.805592800025,1640.8074508000282,['l'],1,[2.9998452000436373],[None],1640.8082688000286,1640.8227234000224,1640.8227234000224,1640.8227234000224,1641.5398820000119,5,0.715186299989,5,0.715186299989,,,,,,,,sub117_AB,001,2026-01-31_20h03.19.142,recognitionstage,,2025.1.1,60.04531018657123,2026-01-31 20h04.13.548418 +0530,
,,,13,13,0,39,frames\Vid39_BB_T.png,frames\Vid39_L.png,['l'],1,[4.111697599990293],[None],4,0.9659004000131972,,,,,0,13,13,38,1641.5579318000237,,23,Male,Right handed,Corrected to normal,,,,,,,,,,,,,,,,,,,,,,,,,,,,,,,,,,,,,,,,1641.5497771999799,1641.5579318000237,1641.5579318000237,1641.5579318000237,1641.5579318000237,1641.5579318000237,1641.5579318000237,1645.6736222999752,['l'],1,[4.111697599990293],[None],1645.674463399977,1645.6892322999774,1645.6892322999774,1645.6892322999774,1646.6564373000292,4,0.9659004000131972,4,0.9659004000131972,,,,,,,,sub117_AB,001,2026-01-31_20h03.19.142,recognitionstage,,2025.1.1,60.04531018657123,2026-01-31 20h04.13.548418 +0530,
,,,14,14,0,24,frames\Vid24_BB_T.png,frames\Vid24_L.png,['r'],1,[2.900345699978061],[None],5,1.1469205999746919,,,,,0,14,14,23,1646.6892657999997,,23,Male,Right handed,Corrected to normal,,,,,,,,,,,,,,,,,,,,,,,,,,,,,,,,,,,,,,,,1646.6683177999803,1646.6892657999997,1646.6892657999997,1646.6892657999997,1646.6892657999997,1646.6892657999997,1646.6892657999997,1649.5919560000184,['r'],1,[2.900345699978061],[None],1649.5934443000006,1649.6059354000026,1649.6059354000026,1649.6059354000026,1650.7564269999857,5,1.1469205999746919,5,1.1469205999746919,,,,,,,,sub117_AB,001,2026-01-31_20h03.19.142,recognitionstage,,2025.1.1,60.04531018657123,2026-01-31 20h04.13.548418 +0530,
,,,15,15,0,28,frames\Vid28_EM_T.png,frames\Vid28_L.png,['l'],1,[2.5430808000382967],[None],5,0.9813756000366993,,,,,0,15,15,27,1650.7746831999975,,23,Male,Right handed,Corrected to normal,,,,,,,,,,,,,,,,,,,,,,,,,,,,,,,,,,,,,,,,1650.7663886999944,1650.7746831999975,1650.7746831999975,1650.7746831999975,1650.7746831999975,1650.7746831999975,1650.7746831999975,1653.3252671000082,['l'],1,[2.5430808000382967],[None],1653.3266330999904,1653.3539476000005,1653.3539476000005,1653.3539476000005,1654.3227550000302,5,0.9813756000366993,5,0.9813756000366993,,,,,,,,sub117_AB,001,2026-01-31_20h03.19.142,recognitionstage,,2025.1.1,60.04531018657123,2026-01-31 20h04.13.548418 +0530,
,,,16,16,0,22,frames\Vid22_EM_T.png,frames\Vid22_L.png,['l'],1,[1.273636500001885],[None],5,0.5322407999774441,,,,,0,16,16,21,1654.3559241999756,,23,Male,Right handed,Corrected to normal,,,,,,,,,,,,,,,,,,,,,,,,,,,,,,,,,,,,,,,,1654.3349635999766,1654.3559241999756,1654.3559241999756,1654.3559241999756,1654.3559241999756,1654.3559241999756,1654.3559241999756,1655.6408701000037,['l'],1,[1.273636500001885],[None],1655.641614000022,1655.6555799000198,1655.6555799000198,1655.6555799000198,1656.189597700024,5,0.5322407999774441,5,0.5322407999774441,,,,,,,,sub117_AB,001,2026-01-31_20h03.19.142,recognitionstage,,2025.1.1,60.04531018657123,2026-01-31 20h04.13.548418 +0530,
,,,17,17,0,32,frames\Vid32_EM_T.png,frames\Vid32_L.png,['l'],1,[1.6459558000206016],[None],5,0.4977073000045493,,,,,0,17,17,31,1656.2078544999822,,23,Male,Right handed,Corrected to normal,,,,,,,,,,,,,,,,,,,,,,,,,,,,,,,,,,,,,,,,1656.2001806999906,1656.2078544999822,1656.2078544999822,1656.2078544999822,1656.2078544999822,1656.2078544999822,1656.2078544999822,1657.857847700012,['l'],1,[1.6459558000206016],[None],1657.8587392999907,1657.8726170000155,1657.8726170000155,1657.8726170000155,1658.3740435999935,5,0.4977073000045493,5,0.4977073000045493,,,,,,,,sub117_AB,001,2026-01-31_20h03.19.142,recognitionstage,,2025.1.1,60.04531018657123,2026-01-31 20h04.13.548418 +0530,
,,,18,18,0,18,frames\Vid18_EM_T.png,frames\Vid18_L.png,['r'],1,[3.167469899985008],[None],5,0.5812704000272788,,,,,0,18,18,17,1658.406086699979,,23,Male,Right handed,Corrected to normal,,,,,,,,,,,,,,,,,,,,,,,,,,,,,,,,,,,,,,,,1658.387047600001,1658.406086699979,1658.406086699979,1658.406086699979,1658.406086699979,1658.406086699979,1658.406086699979,1661.5746976999799,['r'],1,[3.167469899985008],[None],1661.5756745000253,1661.5893625000026,1661.5893625000026,1661.5893625000026,1662.1727805000264,5,0.5812704000272788,5,0.5812704000272788,,,,,,,,sub117_AB,001,2026-01-31_20h03.19.142,recognitionstage,,2025.1.1,60.04531018657123,2026-01-31 20h04.13.548418 +0530,
,,,19,19,0,11,frames\Vid11_EM_T.png,frames\Vid11_L.png,['r'],1,[2.3744062000187114],[None],5,0.5135974999866448,,,,,0,19,19,10,1662.2231054999866,,23,Male,Right handed,Corrected to normal,,,,,,,,,,,,,,,,,,,,,,,,,,,,,,,,,,,,,,,,1662.2132065999904,1662.2231054999866,1662.2231054999866,1662.2231054999866,1662.2231054999866,1662.2231054999866,1662.2231054999866,1664.608654599986,['r'],1,[2.3744062000187114],[None],1664.6097589000128,1664.6221122000134,1664.6221122000134,1664.6221122000134,1665.1398691000068,5,0.5135974999866448,5,0.5135974999866448,,,,,,,,sub117_AB,001,2026-01-31_20h03.19.142,recognitionstage,,2025.1.1,60.04531018657123,2026-01-31 20h04.13.548418 +0530,
,,,20,20,0,1,frames\Vid1_EM_T.png,frames\Vid1_L.png,['l'],1,[2.1888324999599718],[None],5,1.2328520999872126,,,,,0,20,20,0,1665.2086924000178,,23,Male,Right handed,Corrected to normal,,,,,,,,,,,,,,,,,,,,,,,,,,,,,,,,,,,,,,,,1665.184902900015,1665.2086924000178,1665.2086924000178,1665.2086924000178,1665.2086924000178,1665.2086924000178,1665.2086924000178,1667.4076574000064,['l'],1,[2.1888324999599718],[None],1667.408530900022,1667.4229155000066,1667.4229155000066,1667.4229155000066,1668.656098300009,5,1.2328520999872126,5,1.2328520999872126,,,,,,,,sub117_AB,001,2026-01-31_20h03.19.142,recognitionstage,,2025.1.1,60.04531018657123,2026-01-31 20h04.13.548418 +0530,
,,,21,21,0,12,frames\Vid12_EM_T.png,frames\Vid12_L.png,['r'],1,[4.296216899994761],[None],5,0.8481949999695644,,,,,0,21,21,11,1668.7092578000156,,23,Male,Right handed,Corrected to normal,,,,,,,,,,,,,,,,,,,,,,,,,,,,,,,,,,,,,,,,1668.69893090002,1668.7092578000156,1668.7092578000156,1668.7092578000156,1668.7092578000156,1668.7092578000156,1668.7092578000156,1673.0077496999875,['r'],1,[4.296216899994761],[None],1673.008612799982,1673.0227782999864,1673.0227782999864,1673.0227782999864,1673.872732400021,5,0.8481949999695644,5,0.8481949999695644,,,,,,,,sub117_AB,001,2026-01-31_20h03.19.142,recognitionstage,,2025.1.1,60.04531018657123,2026-01-31 20h04.13.548418 +0530,
,,,22,22,0,37,frames\Vid37_BB_T.png,frames\Vid37_L.png,['l'],1,[1.8167284000082873],[None],5,0.5810319000156596,,,,,0,22,22,36,1673.9086901000119,,23,Male,Right handed,Corrected to normal,,,,,,,,,,,,,,,,,,,,,,,,,,,,,,,,,,,,,,,,1673.883901000023,1673.9086901000119,1673.9086901000119,1673.9086901000119,1673.9086901000119,1673.9086901000119,1673.9086901000119,1675.7413218999864,['l'],1,[1.8167284000082873],[None],1675.7424888000241,1675.7558959000162,1675.7558959000162,1675.7558959000162,1676.3395543000079,5,0.5810319000156596,5,0.5810319000156596,,,,,,,,sub117_AB,001,2026-01-31_20h03.19.142,recognitionstage,,2025.1.1,60.04531018657123,2026-01-31 20h04.13.548418 +0530,
,,,23,23,0,33,frames\Vid33_BB_T.png,frames\Vid33_L.png,['l'],1,[3.055526899988763],[None],5,0.579734000028111,,,,,0,23,23,32,1676.3580271999817,,23,Male,Right handed,Corrected to normal,,,,,,,,,,,,,,,,,,,,,,,,,,,,,,,,,,,,,,,,1676.3485571999918,1676.3580271999817,1676.3580271999817,1676.3580271999817,1676.3580271999817,1676.3580271999817,1676.3580271999817,1679.4254252000246,['l'],1,[3.055526899988763],[None],1679.4267416999792,1679.4390310000163,1679.4390310000163,1679.4390310000163,1680.0230959000182,5,0.579734000028111,5,0.579734000028111,,,,,,,,sub117_AB,001,2026-01-31_20h03.19.142,recognitionstage,,2025.1.1,60.04531018657123,2026-01-31 20h04.13.548418 +0530,
,,,24,24,0,27,frames\Vid27_BB_T.png,frames\Vid27_L.png,['l'],1,[2.036677199997939],[None],5,0.3641219999990426,,,,,0,24,24,26,1680.0407716999762,,23,Male,Right handed,Corrected to normal,,,,,,,,,,,,,,,,,,,,,,,,,,,,,,,,,,,,,,,,1680.0315900000278,1680.0407716999762,1680.0407716999762,1680.0407716999762,1680.0407716999762,1680.0407716999762,1680.0407716999762,1682.0917544999975,['l'],1,[2.036677199997939],[None],1682.092831899994,1682.1056083000149,1682.1056083000149,1682.1056083000149,1682.4725541999796,5,0.3641219999990426,5,0.3641219999990426,,,,,,,,sub117_AB,001,2026-01-31_20h03.19.142,recognitionstage,,2025.1.1,60.04531018657123,2026-01-31 20h04.13.548418 +0530,
,,,25,25,0,21,frames\Vid21_BB_T.png,frames\Vid21_L.png,['r'],1,[2.2438876000232995],[None],5,0.48103979998268187,,,,,0,25,25,20,1682.5056192000047,,23,Male,Right handed,Corrected to normal,,,,,,,,,,,,,,,,,,,,,,,,,,,,,,,,,,,,,,,,1682.4846177999862,1682.5056192000047,1682.5056192000047,1682.5056192000047,1682.5056192000047,1682.5056192000047,1682.5056192000047,1684.758057500003,['r'],1,[2.2438876000232995],[None],1684.7589926000219,1684.772125700023,1684.772125700023,1684.772125700023,1685.2564821999986,5,0.48103979998268187,5,0.48103979998268187,,,,,,,,sub117_AB,001,2026-01-31_20h03.19.142,recognitionstage,,2025.1.1,60.04531018657123,2026-01-31 20h04.13.548418 +0530,
,,,26,26,0,2,frames\Vid2_BB_T.png,frames\Vid2_L.png,['l'],1,[2.2911153999739327],[None],5,0.7644987000385299,,,,,0,26,26,1,1685.306370300008,,23,Male,Right handed,Corrected to normal,,,,,,,,,,,,,,,,,,,,,,,,,,,,,,,,,,,,,,,,1685.2937546999892,1685.306370300008,1685.306370300008,1685.306370300008,1685.306370300008,1685.306370300008,1685.306370300008,1687.6078077999991,['l'],1,[2.2911153999739327],[None],1687.6087588000228,1687.622583199991,1687.622583199991,1687.622583199991,1688.3899562000297,5,0.7644987000385299,5,0.7644987000385299,,,,,,,,sub117_AB,001,2026-01-31_20h03.19.142,recognitionstage,,2025.1.1,60.04531018657123,2026-01-31 20h04.13.548418 +0530,
,,,27,27,0,40,frames\Vid40_EM_T.png,frames\Vid40_L.png,['l'],1,[1.8669607000192627],[None],5,0.43073209997965023,,,,,0,27,27,39,1688.4104455999914,,23,Male,Right handed,Corrected to normal,,,,,,,,,,,,,,,,,,,,,,,,,,,,,,,,,,,,,,,,1688.397861799982,1688.4104455999914,1688.4104455999914,1688.4104455999914,1688.4104455999914,1688.4104455999914,1688.4104455999914,1690.2915226999903,['l'],1,[1.8669607000192627],[None],1690.2926817000262,1690.320983099984,1690.320983099984,1690.320983099984,1690.7399062999757,5,0.43073209997965023,5,0.43073209997965023,,,,,,,,sub117_AB,001,2026-01-31_20h03.19.142,recognitionstage,,2025.1.1,60.04531018657123,2026-01-31 20h04.13.548418 +0530,
,,,28,28,0,6,frames\Vid6_BB_T.png,frames\Vid6_L.png,['l'],1,[4.8161178000154905],[None],5,0.428262600034941,,,,,0,28,28,5,1690.789556499978,,23,Male,Right handed,Corrected to normal,,,,,,,,,,,,,,,,,,,,,,,,,,,,,,,,,,,,,,,,1690.7824396999786,1690.789556499978,1690.789556499978,1690.789556499978,1690.789556499978,1690.789556499978,1690.789556499978,1695.6106165000238,['l'],1,[4.8161178000154905],[None],1695.612188500003,1695.6373112000292,1695.6373112000292,1695.6373112000292,1696.056485900015,5,0.428262600034941,5,0.428262600034941,,,,,,,,sub117_AB,001,2026-01-31_20h03.19.142,recognitionstage,,2025.1.1,60.04531018657123,2026-01-31 20h04.13.548418 +0530,
,,,29,29,0,14,frames\Vid14_BB_T.png,frames\Vid14_L.png,['r'],1,[2.535871699976269],[None],5,0.49816840002313256,,,,,0,29,29,13,1696.1096237999736,,23,Male,Right handed,Corrected to normal,,,,,,,,,,,,,,,,,,,,,,,,,,,,,,,,,,,,,,,,1696.0998013999779,1696.1096237999736,1696.1096237999736,1696.1096237999736,1696.1096237999736,1696.1096237999736,1696.1096237999736,1698.6581795000238,['r'],1,[2.535871699976269],[None],1698.6592084000004,1698.672388100007,1698.672388100007,1698.672388100007,1699.172710600018,5,0.49816840002313256,5,0.49816840002313256,,,,,,,,sub117_AB,001,2026-01-31_20h03.19.142,recognitionstage,,2025.1.1,60.04531018657123,2026-01-31 20h04.13.548418 +0530,
,,,30,30,0,16,frames\Vid16_EM_T.png,frames\Vid16_L.png,['l'],1,[3.019850700045936],[None],5,0.4648688000161201,,,,,0,30,30,15,1699.2256007000105,,23,Male,Right handed,Corrected to normal,,,,,,,,,,,,,,,,,,,,,,,,,,,,,,,,,,,,,,,,1699.2128616999835,1699.2256007000105,1699.2256007000105,1699.2256007000105,1699.2256007000105,1699.2256007000105,1699.2256007000105,1702.2575913000037,['l'],1,[3.019850700045936],[None],1702.2586160000064,1702.2726179999881,1702.2726179999881,1702.2726179999881,1702.739850700018,5,0.4648688000161201,5,0.4648688000161201,,,,,,,,sub117_AB,001,2026-01-31_20h03.19.142,recognitionstage,,2025.1.1,60.04531018657123,2026-01-31 20h04.13.548418 +0530,
,,,31,31,0,26,frames\Vid26_EM_T.png,frames\Vid26_L.png,['r'],1,[1.494420100003481],[None],5,0.4301580999745056,,,,,0,31,31,25,1702.7751639999915,,23,Male,Right handed,Corrected to normal,,,,,,,,,,,,,,,,,,,,,,,,,,,,,,,,,,,,,,,,1702.7539556000265,1702.7751639999915,1702.7751639999915,1702.7751639999915,1702.7751639999915,1702.7751639999915,1702.7751639999915,1704.27495240001,['r'],1,[1.494420100003481],[None],1704.2765297000296,1704.2892962999758,1704.2892962999758,1704.2892962999758,1704.723170400015,5,0.4301580999745056,5,0.4301580999745056,,,,,,,,sub117_AB,001,2026-01-31_20h03.19.142,recognitionstage,,2025.1.1,60.04531018657123,2026-01-31 20h04.13.548418 +0530,
,,,32,32,0,5,frames\Vid5_EM_T.png,frames\Vid5_L.png,['l'],1,[3.744324399973266],[None],5,0.5820066000451334,,,,,0,32,32,4,1704.7731355000287,,23,Male,Right handed,Corrected to normal,,,,,,,,,,,,,,,,,,,,,,,,,,,,,,,,,,,,,,,,1704.750749400002,1704.7731355000287,1704.7731355000287,1704.7731355000287,1704.7731355000287,1704.7731355000287,1704.7731355000287,1708.5240990000311,['l'],1,[3.744324399973266],[None],1708.5248642999795,1708.5390381999896,1708.5390381999896,1708.5390381999896,1709.1231481999857,5,0.5820066000451334,5,0.5820066000451334,,,,,,,,sub117_AB,001,2026-01-31_20h03.19.142,recognitionstage,,2025.1.1,60.04531018657123,2026-01-31 20h04.13.548418 +0530,
,,,33,33,0,20,frames\Vid20_EM_T.png,frames\Vid20_L.png,['l'],1,[2.7347000000299886],[None],5,0.3305578000145033,,,,,0,33,33,19,1709.1427726999973,,23,Male,Right handed,Corrected to normal,,,,,,,,,,,,,,,,,,,,,,,,,,,,,,,,,,,,,,,,1709.1295093999943,1709.1427726999973,1709.1427726999973,1709.1427726999973,1709.1427726999973,1709.1427726999973,1709.1427726999973,1711.8920021000085,['l'],1,[2.7347000000299886],[None],1711.8930933999945,1711.9054758999846,1711.9054758999846,1711.9054758999846,1712.2401145999902,5,0.3305578000145033,5,0.3305578000145033,,,,,,,,sub117_AB,001,2026-01-31_20h03.19.142,recognitionstage,,2025.1.1,60.04531018657123,2026-01-31 20h04.13.548418 +0530,
,,,34,34,0,13,frames\Vid13_BB_T.png,frames\Vid13_L.png,['l'],1,[3.1399745999951847],[None],5,0.29817199998069555,,,,,0,34,34,12,1712.2894554000231,,23,Male,Right handed,Corrected to normal,,,,,,,,,,,,,,,,,,,,,,,,,,,,,,,,,,,,,,,,1712.2731161999982,1712.2894554000231,1712.2894554000231,1712.2894554000231,1712.2894554000231,1712.2894554000231,1712.2894554000231,1715.441510899982,['l'],1,[3.1399745999951847],[None],1715.4424198999768,1715.4556622999953,1715.4556622999953,1715.4556622999953,1715.756231700012,5,0.29817199998069555,5,0.29817199998069555,,,,,,,,sub117_AB,001,2026-01-31_20h03.19.142,recognitionstage,,2025.1.1,60.04531018657123,2026-01-31 20h04.13.548418 +0530,
,,,35,35,0,35,frames\Vid35_EM_T.png,frames\Vid35_L.png,['r'],1,[2.532363600039389],[None],5,0.38173869997262955,,,,,0,35,35,34,1715.7770575999748,,23,Male,Right handed,Corrected to normal,,,,,,,,,,,,,,,,,,,,,,,,,,,,,,,,,,,,,,,,1715.7642215000233,1715.7770575999748,1715.7770575999748,1715.7770575999748,1715.7770575999748,1715.7770575999748,1715.7770575999748,1718.3241498999996,['r'],1,[2.532363600039389],[None],1718.3251283999998,1718.339291399985,1718.339291399985,1718.339291399985,1718.7234389000223,5,0.38173869997262955,5,0.38173869997262955,,,,,,,,sub117_AB,001,2026-01-31_20h03.19.142,recognitionstage,,2025.1.1,60.04531018657123,2026-01-31 20h04.13.548418 +0530,
,,,36,36,0,15,frames\Vid15_BB_T.png,frames\Vid15_L.png,['r'],1,[3.6080761999473907],[None],5,0.496000399987679,,,,,0,36,36,14,1718.7895244000247,,23,Male,Right handed,Corrected to normal,,,,,,,,,,,,,,,,,,,,,,,,,,,,,,,,,,,,,,,,1718.7706414000131,1718.7895244000247,1718.7895244000247,1718.7895244000247,1718.7895244000247,1718.7895244000247,1718.7895244000247,1722.4092987999902,['r'],1,[3.6080761999473907],[None],1722.4107139999978,1722.4376907999977,1722.4376907999977,1722.4376907999977,1722.923120099993,5,0.496000399987679,5,0.496000399987679,,,,,,,,sub117_AB,001,2026-01-31_20h03.19.142,recognitionstage,,2025.1.1,60.04531018657123,2026-01-31 20h04.13.548418 +0530,
,,,37,37,0,25,frames\Vid25_BB_T.png,frames\Vid25_L.png,['l'],1,[2.166344199969899],[None],5,0.4641389999887906,,,,,0,37,37,24,1722.9435657000286,,23,Male,Right handed,Corrected to normal,,,,,,,,,,,,,,,,,,,,,,,,,,,,,,,,,,,,,,,,1722.9328806999838,1722.9435657000286,1722.9435657000286,1722.9435657000286,1722.9435657000286,1722.9435657000286,1722.9435657000286,1725.1252851000172,['l'],1,[2.166344199969899],[None],1725.1263878999744,1725.1389222000143,1725.1389222000143,1725.1389222000143,1725.606106900028,5,0.4641389999887906,5,0.4641389999887906,,,,,,,,sub117_AB,001,2026-01-31_20h03.19.142,recognitionstage,,2025.1.1,60.04531018657123,2026-01-31 20h04.13.548418 +0530,
,,,38,38,0,30,frames\Vid30_EM_T.png,frames\Vid30_L.png,['r'],1,[4.23829350003507],[None],5,0.3474424000014551,,,,,0,38,38,29,1725.6391254999908,,23,Male,Right handed,Corrected to normal,,,,,,,,,,,,,,,,,,,,,,,,,,,,,,,,,,,,,,,,1725.6175276000286,1725.6391254999908,1725.6391254999908,1725.6391254999908,1725.6391254999908,1725.6391254999908,1725.6391254999908,1729.89193719998,['r'],1,[4.23829350003507],[None],1729.893158700026,1729.9054687999887,1729.9054687999887,1729.9054687999887,1730.256571099977,5,0.3474424000014551,5,0.3474424000014551,,,,,,,,sub117_AB,001,2026-01-31_20h03.19.142,recognitionstage,,2025.1.1,60.04531018657123,2026-01-31 20h04.13.548418 +0530,
,,,39,39,0,10,frames\Vid10_BB_T.png,frames\Vid10_L.png,['l'],1,[2.291110899997875],[None],5,0.5487769999890588,,,,,0,39,39,9,1730.3064642000245,,23,Male,Right handed,Corrected to normal,,,,,,,,,,,,,,,,,,,,,,,,,,,,,,,,,,,,,,,,1730.296396700025,1730.3064642000245,1730.3064642000245,1730.3064642000245,1730.3064642000245,1730.3064642000245,1730.3064642000245,1732.6078132999828,['l'],1,[2.291110899997875],[None],1732.608800499991,1732.6225830999902,1732.6225830999902,1732.6225830999902,1733.173092300014,5,0.5487769999890588,5,0.5487769999890588,,,,,,,,sub117_AB,001,2026-01-31_20h03.19.142,recognitionstage,,2025.1.1,60.04531018657123,2026-01-31 20h04.13.548418 +0530,
,,,,,,,,,,,,,,,,,,,,,,,,,23,Male,Right handed,Corrected to normal,,,,,,,,,,,,,,,,,,,,,,,,,,,,,,,,,,,,,,,,,,,,,,,,,,,,,,,,,,,,,1733.1731933000265,1733.1899647000246,1733.1899647000246,1735.7577306000167,space,2.5596424999530427,None,sub117_AB,001,2026-01-31_20h03.19.142,recognitionstage,,2025.1.1,60.04531018657123,2026-01-31 20h04.13.548418 +0530,
