path,duration,is_repeat,thisN,thisTrialN,thisRepN,movie_id,target_img,lure_img,resp.keys,resp.corr,resp.rt,resp.duration,conf_radio.response,conf_radio.rt,movie.thisRepN,movie.thisTrialN,movie.thisN,movie.thisIndex,recogloop.thisRepN,recogloop.thisTrialN,recogloop.thisN,recogloop.thisIndex,thisRow.t,notes,age,gender,handedness,vision,caffeine_2h,alcohol_smoke_12h,demographics.started,demographics.stopped,Instructions.started,text1.started,key_resp.started,Instructions.stopped,key_resp.keys,key_resp.rt,key_resp.duration,instruction_2.started,text2.started,key_resp_2.started,instruction_2.stopped,key_resp_2.keys,key_resp_2.rt,key_resp_2.duration,Videos.started,movie_2.started,vigilance_resp.started,movie_2.stopped,Videos.stopped,movie.vigilance_resp.keys,vigilance_pressed,vigilance_correct,ISI.started,text.started,ISI.stopped,text.stopped,movie.vigilance_resp.rt,movie.vigilance_resp.duration,recognition.started,text_4.started,key_resp_3.started,recognition.stopped,key_resp_3.keys,key_resp_3.rt,key_resp_3.duration,recognition_task.started,leftimage.started,rightimage.started,resp.started,frames_question.started,right_label.started,left_label.started,recognition_task.stopped,recogloop.resp.keys,recogloop.resp.corr,recogloop.resp.rt,recogloop.resp.duration,confidence.started,conf_text.started,conf_radio.started,conf_label.started,confidence.stopped,recogloop.conf_radio.response,recogloop.conf_radio.rt,confidence,confidence_rt,thank_you.started,text_6.started,key_resp_4.started,thank_you.stopped,key_resp_4.keys,key_resp_4.rt,key_resp_4.duration,participant,session,date,expName,expVersion,psychopyVersion,frameRate,expStart,...105
,,,,,,,,,,,,,,,,,,,,,,,,,25,Male,Left Handed,Normal,Caffeine consumed in last 2 hours?,Alcohol or smoking in last 12 hours?,0.016092499980004504,0.018652799975825474,,,,,,,,,,,,,,,,,,,,,,,,,,,,,,,,,,,,,,,,,,,,,,,,,,,,,,,,,,,,,,,,sub150_AB,001,2026-02-03_12h14.08.392,recognitionstage,,2025.1.1,59.83423523327258,2026-02-03 12h15.04.620043 +0530,
,,,,,,,,,,,,,,,,,,,,,,,,,25,Male,Left Handed,Normal,,,,,0.01867550000315532,0.03489719997742213,0.03489719997742213,10.836665899987565,space,10.795122999988962,None,,,,,,,,,,,,,,,,,,,,,,,,,,,,,,,,,,,,,,,,,,,,,,,,,,,,,,,,,sub150_AB,001,2026-02-03_12h14.08.392,recognitionstage,,2025.1.1,59.83423523327258,2026-02-03 12h15.04.620043 +0530,
,,,,,,,,,,,,,,,,,,,,,,,,,25,Male,Left Handed,Normal,,,,,,,,,,,,10.836719099985203,10.85289899999043,10.85289899999043,20.65486109998892,space,9.800919700006489,None,,,,,,,,,,,,,,,,,,,,,,,,,,,,,,,,,,,,,,,,,,,,,,,,,,sub150_AB,001,2026-02-03_12h14.08.392,recognitionstage,,2025.1.1,59.83423523327258,2026-02-03 12h15.04.620043 +0530,
Trimmed_videos/natural_37.mp4,39,1,44,44,0,,,,,,,,,,0,44,44,40,,,,,1643.933838899975,,25,Male,Left Handed,Normal,,,,,,,,,,,,,,,,,,,1643.8885614000028,1643.933838899975,1643.933838899975,1640.74983049999,1650.335687599989,space,1,1,1650.4549010999908,1650.4664120999805,1652.953102200001,1652.9686497999937,6.391047400014941,None,1652.9531842999859,1652.9686497999937,1652.9686497999937,1680.16973709999,space,27.196580200019525,None,,,,,,,,,,,,,,,,,,,,,,,,,,,,,sub150_AB,001,2026-02-03_12h14.08.392,recognitionstage,,2025.1.1,59.83423523327258,2026-02-03 12h15.04.620043 +0530,
,,,0,0,0,23,frames\Vid23_EM_T.png,frames\Vid23_L.png,['l'],1,[7.013904499995988],[None],5,7.896842799993465,,,,,0,0,0,22,1680.1991974999837,,25,Male,Left Handed,Normal,,,,,,,,,,,,,,,,,,,,,,,,,,,,,,,,,,,,,,,,1680.192581899988,1680.1991974999837,1680.1991974999837,1680.1991974999837,1680.1991974999837,1680.1991974999837,1680.1991974999837,1687.2198490999872,['l'],1,[7.013904499995988],[None],1687.2211106999894,1687.2485689999885,1687.2485689999885,1687.2485689999885,1695.1350121999858,5,7.896842799993465,5,7.896842799993465,,,,,,,,sub150_AB,001,2026-02-03_12h14.08.392,recognitionstage,,2025.1.1,59.83423523327258,2026-02-03 12h15.04.620043 +0530,
,,,1,1,0,15,frames\Vid15_BB_T.png,frames\Vid15_L.png,['r'],1,[24.125272800010862],[None],3,2.2480342999915592,,,,,0,1,1,14,1695.1996262999892,,25,Male,Left Handed,Normal,,,,,,,,,,,,,,,,,,,,,,,,,,,,,,,,,,,,,,,,1695.1915812999941,1695.1996262999892,1695.1996262999892,1695.1996262999892,1695.1996262999892,1695.1996262999892,1695.1996262999892,1719.336524399987,['r'],1,[24.125272800010862],[None],1719.338088599994,1719.3511300999962,1719.3511300999962,1719.3511300999962,1721.6010495999944,3,2.2480342999915592,3,2.2480342999915592,,,,,,,,sub150_AB,001,2026-02-03_12h14.08.392,recognitionstage,,2025.1.1,59.83423523327258,2026-02-03 12h15.04.620043 +0530,
,,,2,2,0,24,frames\Vid24_BB_T.png,frames\Vid24_L.png,['l'],1,[5.691904100007378],[None],5,1.9151381999836303,,,,,0,2,2,23,1721.6329858999816,,25,Male,Left Handed,Normal,,,,,,,,,,,,,,,,,,,,,,,,,,,,,,,,,,,,,,,,1721.6265736999922,1721.6329858999816,1721.6329858999816,1721.6329858999816,1721.6329858999816,1721.6329858999816,1721.6329858999816,1727.3359800000035,['l'],1,[5.691904100007378],[None],1727.3369494999934,1727.351221799996,1727.351221799996,1727.351221799996,1729.2681359999988,5,1.9151381999836303,5,1.9151381999836303,,,,,,,,sub150_AB,001,2026-02-03_12h14.08.392,recognitionstage,,2025.1.1,59.83423523327258,2026-02-03 12h15.04.620043 +0530,
,,,3,3,0,25,frames\Vid25_BB_T.png,frames\Vid25_L.png,['l'],1,[5.040284999995492],[None],5,2.562794900004519,,,,,0,3,3,24,1729.3006026999792,,25,Male,Left Handed,Normal,,,,,,,,,,,,,,,,,,,,,,,,,,,,,,,,,,,,,,,,1729.2800178999896,1729.3006026999792,1729.3006026999792,1729.3006026999792,1729.3006026999792,1729.3006026999792,1729.3006026999792,1734.3539020000026,['l'],1,[5.040284999995492],[None],1734.3552913999883,1734.3823170999822,1734.3823170999822,1734.3823170999822,1736.9354559999774,5,2.562794900004519,5,2.562794900004519,,,,,,,,sub150_AB,001,2026-02-03_12h14.08.392,recognitionstage,,2025.1.1,59.83423523327258,2026-02-03 12h15.04.620043 +0530,
,,,4,4,0,21,frames\Vid21_BB_T.png,frames\Vid21_L.png,['l'],1,[3.478030999976909],[None],5,2.2982950000150595,,,,,0,4,4,20,1736.9668401999807,,25,Male,Left Handed,Normal,,,,,,,,,,,,,,,,,,,,,,,,,,,,,,,,,,,,,,,,1736.9501395999978,1736.9668401999807,1736.9668401999807,1736.9668401999807,1736.9668401999807,1736.9668401999807,1736.9668401999807,1740.4527426999994,['l'],1,[3.478030999976909],[None],1740.4535956000036,1740.4670488999982,1740.4670488999982,1740.4670488999982,1742.7684258999943,5,2.2982950000150595,5,2.2982950000150595,,,,,,,,sub150_AB,001,2026-02-03_12h14.08.392,recognitionstage,,2025.1.1,59.83423523327258,2026-02-03 12h15.04.620043 +0530,
,,,5,5,0,20,frames\Vid20_EM_T.png,frames\Vid20_L.png,['l'],1,[10.786182599986205],[None],5,1.932034899975406,,,,,0,5,5,19,1742.7866703000036,,25,Male,Left Handed,Normal,,,,,,,,,,,,,,,,,,,,,,,,,,,,,,,,,,,,,,,,1742.7756313999998,1742.7866703000036,1742.7866703000036,1742.7866703000036,1742.7866703000036,1742.7866703000036,1742.7866703000036,1753.5860695999872,['l'],1,[10.786182599986205],[None],1753.5869620000012,1753.6004668999813,1753.6004668999813,1753.6004668999813,1755.5348822999804,5,1.932034899975406,5,1.932034899975406,,,,,,,,sub150_AB,001,2026-02-03_12h14.08.392,recognitionstage,,2025.1.1,59.83423523327258,2026-02-03 12h15.04.620043 +0530,
,,,6,6,0,28,frames\Vid28_EM_T.png,frames\Vid28_L.png,['l'],1,[5.95801269999356],[None],5,2.498879199993098,,,,,0,6,6,27,1755.5668761999987,,25,Male,Left Handed,Normal,,,,,,,,,,,,,,,,,,,,,,,,,,,,,,,,,,,,,,,,1755.5458572999923,1755.5668761999987,1755.5668761999987,1755.5668761999987,1755.5668761999987,1755.5668761999987,1755.5668761999987,1761.5356116999756,['l'],1,[5.95801269999356],[None],1761.536618699989,1761.5508990999951,1761.5508990999951,1761.5508990999951,1764.051721900003,5,2.498879199993098,5,2.498879199993098,,,,,,,,sub150_AB,001,2026-02-03_12h14.08.392,recognitionstage,,2025.1.1,59.83423523327258,2026-02-03 12h15.04.620043 +0530,
,,,7,7,0,38,frames\Vid38_EM_T.png,frames\Vid38_L.png,['r'],0,[15.761012499977369],[None],3,7.83202890001121,,,,,0,7,7,37,1764.0838546000014,,25,Male,Left Handed,Normal,,,,,,,,,,,,,,,,,,,,,,,,,,,,,,,,,,,,,,,,1764.063245999976,1764.0838546000014,1764.0838546000014,1764.0838546000014,1764.0838546000014,1764.0838546000014,1764.0838546000014,1779.8520293000038,['r'],0,[15.761012499977369],[None],1779.8530199999805,1779.8683730999765,1779.8683730999765,1779.8683730999765,1787.7018746999966,3,7.83202890001121,3,7.83202890001121,,,,,,,,sub150_AB,001,2026-02-03_12h14.08.392,recognitionstage,,2025.1.1,59.83423523327258,2026-02-03 12h15.04.620043 +0530,
,,,8,8,0,37,frames\Vid37_BB_T.png,frames\Vid37_L.png,['r'],1,[3.5670412000035867],[None],5,2.180542299989611,,,,,0,8,8,36,1787.7339959999954,,25,Male,Left Handed,Normal,,,,,,,,,,,,,,,,,,,,,,,,,,,,,,,,,,,,,,,,1787.7165186999773,1787.7339959999954,1787.7339959999954,1787.7339959999954,1787.7339959999954,1787.7339959999954,1787.7339959999954,1791.3040675999946,['r'],1,[3.5670412000035867],[None],1791.305508999998,1791.3174097999872,1791.3174097999872,1791.3174097999872,1793.5015469999926,5,2.180542299989611,5,2.180542299989611,,,,,,,,sub150_AB,001,2026-02-03_12h14.08.392,recognitionstage,,2025.1.1,59.83423523327258,2026-02-03 12h15.04.620043 +0530,
,,,9,9,0,34,frames\Vid34_BB_T.png,frames\Vid34_L.png,['r'],1,[3.7735900999978185],[None],5,2.0490436000109185,,,,,0,9,9,33,1793.5193037999852,,25,Male,Left Handed,Normal,,,,,,,,,,,,,,,,,,,,,,,,,,,,,,,,,,,,,,,,1793.5116794999922,1793.5193037999852,1793.5193037999852,1793.5193037999852,1793.5193037999852,1793.5193037999852,1793.5193037999852,1797.3020573999966,['r'],1,[3.7735900999978185],[None],1797.3028949,1797.3175207999884,1797.3175207999884,1797.3175207999884,1799.3677206999855,5,2.0490436000109185,5,2.0490436000109185,,,,,,,,sub150_AB,001,2026-02-03_12h14.08.392,recognitionstage,,2025.1.1,59.83423523327258,2026-02-03 12h15.04.620043 +0530,
,,,10,10,0,4,frames\Vid4_EM_T.png,frames\Vid4_L.png,['r'],1,[24.07452260001446],[None],4,2.4475159000139683,,,,,0,10,10,3,1799.4344063999888,,25,Male,Left Handed,Normal,,,,,,,,,,,,,,,,,,,,,,,,,,,,,,,,,,,,,,,,1799.4149550999864,1799.4344063999888,1799.4344063999888,1799.4344063999888,1799.4344063999888,1799.4344063999888,1799.4344063999888,1823.5204491999757,['r'],1,[24.07452260001446],[None],1823.521665599983,1823.5337870999938,1823.5337870999938,1823.5337870999938,1825.9850478000008,4,2.4475159000139683,4,2.4475159000139683,,,,,,,,sub150_AB,001,2026-02-03_12h14.08.392,recognitionstage,,2025.1.1,59.83423523327258,2026-02-03 12h15.04.620043 +0530,
,,,11,11,0,9,frames\Vid9_EM_T.png,frames\Vid9_L.png,['l'],1,[3.2557263000053354],[None],5,1.7821792000031564,,,,,0,11,11,8,1826.0371247000003,,25,Male,Left Handed,Normal,,,,,,,,,,,,,,,,,,,,,,,,,,,,,,,,,,,,,,,,1826.0279724999855,1826.0371247000003,1826.0371247000003,1826.0371247000003,1826.0371247000003,1826.0371247000003,1826.0371247000003,1829.3025045999966,['l'],1,[3.2557263000053354],[None],1829.3034566999995,1829.3176579999854,1829.3176579999854,1829.3176579999854,1831.1012460999773,5,1.7821792000031564,5,1.7821792000031564,,,,,,,,sub150_AB,001,2026-02-03_12h14.08.392,recognitionstage,,2025.1.1,59.83423523327258,2026-02-03 12h15.04.620043 +0530,
,,,12,12,0,33,frames\Vid33_BB_T.png,frames\Vid33_L.png,['l'],1,[6.923158900026465],[None],5,1.898330599971814,,,,,0,12,12,32,1831.121794799983,,25,Male,Left Handed,Normal,,,,,,,,,,,,,,,,,,,,,,,,,,,,,,,,,,,,,,,,1831.1105373000028,1831.121794799983,1831.121794799983,1831.121794799983,1831.121794799983,1831.121794799983,1831.121794799983,1838.0534271999786,['l'],1,[6.923158900026465],[None],1838.0545090999804,1838.0671392999939,1838.0671392999939,1838.0671392999939,1839.9682038000028,5,1.898330599971814,5,1.898330599971814,,,,,,,,sub150_AB,001,2026-02-03_12h14.08.392,recognitionstage,,2025.1.1,59.83423523327258,2026-02-03 12h15.04.620043 +0530,
,,,13,13,0,5,frames\Vid5_EM_T.png,frames\Vid5_L.png,['r'],1,[13.427722099993844],[None],1,3.8475196000072174,,,,,0,13,13,4,1840.0173511999892,,25,Male,Left Handed,Normal,,,,,,,,,,,,,,,,,,,,,,,,,,,,,,,,,,,,,,,,1839.998269899981,1840.0173511999892,1840.0173511999892,1840.0173511999892,1840.0173511999892,1840.0173511999892,1840.0173511999892,1853.4532550000004,['r'],1,[13.427722099993844],[None],1853.4544702999992,1853.4676020999905,1853.4676020999905,1853.4676020999905,1857.3180632999865,1,3.8475196000072174,1,3.8475196000072174,,,,,,,,sub150_AB,001,2026-02-03_12h14.08.392,recognitionstage,,2025.1.1,59.83423523327258,2026-02-03 12h15.04.620043 +0530,
,,,14,14,0,8,frames\Vid8_BB_T.png,frames\Vid8_L.png,['l'],1,[5.186846800002968],[None],5,1.849386499990942,,,,,0,14,14,7,1857.3698768999893,,25,Male,Left Handed,Normal,,,,,,,,,,,,,,,,,,,,,,,,,,,,,,,,,,,,,,,,1857.3567312999803,1857.3698768999893,1857.3698768999893,1857.3698768999893,1857.3698768999893,1857.3698768999893,1857.3698768999893,1862.5684267999895,['l'],1,[5.186846800002968],[None],1862.569081099995,1862.584031699982,1862.584031699982,1862.584031699982,1864.4345387999783,5,1.849386499990942,5,1.849386499990942,,,,,,,,sub150_AB,001,2026-02-03_12h14.08.392,recognitionstage,,2025.1.1,59.83423523327258,2026-02-03 12h15.04.620043 +0530,
,,,15,15,0,27,frames\Vid27_BB_T.png,frames\Vid27_L.png,['r'],1,[5.861095600004774],[None],5,1.215385999996215,,,,,0,15,15,26,1864.455596899992,,25,Male,Left Handed,Normal,,,,,,,,,,,,,,,,,,,,,,,,,,,,,,,,,,,,,,,,1864.4438760999765,1864.455596899992,1864.455596899992,1864.455596899992,1864.455596899992,1864.455596899992,1864.455596899992,1870.3188156999822,['r'],1,[5.861095600004774],[None],1870.3194593999942,1870.3336974999984,1870.3336974999984,1870.3336974999984,1871.552018699993,5,1.215385999996215,5,1.215385999996215,,,,,,,,sub150_AB,001,2026-02-03_12h14.08.392,recognitionstage,,2025.1.1,59.83423523327258,2026-02-03 12h15.04.620043 +0530,
,,,16,16,0,29,frames\Vid29_BB_T.png,frames\Vid29_L.png,['l'],0,[13.525184700003592],[None],2,1.6326463999866974,,,,,0,16,16,28,1871.5836879999842,,25,Male,Left Handed,Normal,,,,,,,,,,,,,,,,,,,,,,,,,,,,,,,,,,,,,,,,1871.5631736999785,1871.5836879999842,1871.5836879999842,1871.5836879999842,1871.5836879999842,1871.5836879999842,1871.5836879999842,1885.1185805999849,['l'],0,[13.525184700003592],[None],1885.119352299982,1885.1342775999801,1885.1342775999801,1885.1342775999801,1886.7686467999883,2,1.6326463999866974,2,1.6326463999866974,,,,,,,,sub150_AB,001,2026-02-03_12h14.08.392,recognitionstage,,2025.1.1,59.83423523327258,2026-02-03 12h15.04.620043 +0530,
,,,17,17,0,17,frames\Vid17_BB_T.png,frames\Vid17_L.png,['r'],1,[3.356240799999796],[None],5,1.2640848999726586,,,,,0,17,17,16,1886.8006373999815,,25,Male,Left Handed,Normal,,,,,,,,,,,,,,,,,,,,,,,,,,,,,,,,,,,,,,,,1886.7941050999798,1886.8006373999815,1886.8006373999815,1886.8006373999815,1886.8006373999815,1886.8006373999815,1886.8006373999815,1890.1696051000035,['r'],1,[3.356240799999796],[None],1890.1706292000017,1890.184168799984,1890.184168799984,1890.184168799984,1891.4516377999971,5,1.2640848999726586,5,1.2640848999726586,,,,,,,,sub150_AB,001,2026-02-03_12h14.08.392,recognitionstage,,2025.1.1,59.83423523327258,2026-02-03 12h15.04.620043 +0530,
,,,18,18,0,12,frames\Vid12_EM_T.png,frames\Vid12_L.png,['l'],1,[3.294045999995433],[None],5,1.8824289999902248,,,,,0,18,18,11,1891.519017099985,,25,Male,Left Handed,Normal,,,,,,,,,,,,,,,,,,,,,,,,,,,,,,,,,,,,,,,,1891.4981979999866,1891.519017099985,1891.519017099985,1891.519017099985,1891.519017099985,1891.519017099985,1891.519017099985,1894.8192617000022,['l'],1,[3.294045999995433],[None],1894.820086199994,1894.8340832999966,1894.8340832999966,1894.8340832999966,1896.7179791999806,5,1.8824289999902248,5,1.8824289999902248,,,,,,,,sub150_AB,001,2026-02-03_12h14.08.392,recognitionstage,,2025.1.1,59.83423523327258,2026-02-03 12h15.04.620043 +0530,
,,,19,19,0,16,frames\Vid16_EM_T.png,frames\Vid16_L.png,['r'],1,[35.62573739999789],[None],3,1.9486415999999736,,,,,0,19,19,15,1896.7872625000018,,25,Male,Left Handed,Normal,,,,,,,,,,,,,,,,,,,,,,,,,,,,,,,,,,,,,,,,1896.765329499991,1896.7872625000018,1896.7872625000018,1896.7872625000018,1896.7872625000018,1896.7872625000018,1896.7872625000018,1932.4190004999982,['r'],1,[35.62573739999789],[None],1932.4198956000037,1932.4340507999877,1932.4340507999877,1932.4340507999877,1934.3845021000016,3,1.9486415999999736,3,1.9486415999999736,,,,,,,,sub150_AB,001,2026-02-03_12h14.08.392,recognitionstage,,2025.1.1,59.83423523327258,2026-02-03 12h15.04.620043 +0530,
,,,20,20,0,32,frames\Vid32_EM_T.png,frames\Vid32_L.png,['l'],1,[3.969068000005791],[None],5,1.3983436000125948,,,,,0,20,20,31,1934.4196642999887,,25,Male,Left Handed,Normal,,,,,,,,,,,,,,,,,,,,,,,,,,,,,,,,,,,,,,,,1934.395252599992,1934.4196642999887,1934.4196642999887,1934.4196642999887,1934.4196642999887,1934.4196642999887,1934.4196642999887,1938.402884799987,['l'],1,[3.969068000005791],[None],1938.403756499989,1938.417040899978,1938.417040899978,1938.417040899978,1939.8173051999765,5,1.3983436000125948,5,1.3983436000125948,,,,,,,,sub150_AB,001,2026-02-03_12h14.08.392,recognitionstage,,2025.1.1,59.83423523327258,2026-02-03 12h15.04.620043 +0530,
,,,21,21,0,2,frames\Vid2_BB_T.png,frames\Vid2_L.png,['l'],1,[3.6329234000004362],[None],5,2.8318904000043403,,,,,0,21,21,1,1939.8679238999903,,25,Male,Left Handed,Normal,,,,,,,,,,,,,,,,,,,,,,,,,,,,,,,,,,,,,,,,1939.8567524999962,1939.8679238999903,1939.8679238999903,1939.8679238999903,1939.8679238999903,1939.8679238999903,1939.8679238999903,1943.5021938999998,['l'],1,[3.6329234000004362],[None],1943.5030649999972,1943.51741879998,1943.51741879998,1943.51741879998,1946.3520238999918,5,2.8318904000043403,5,2.8318904000043403,,,,,,,,sub150_AB,001,2026-02-03_12h14.08.392,recognitionstage,,2025.1.1,59.83423523327258,2026-02-03 12h15.04.620043 +0530,
,,,22,22,0,31,frames\Vid31_EM_T.png,frames\Vid31_L.png,['l'],0,[17.69677059998503],[None],5,1.2484204999927897,,,,,0,22,22,30,1946.372019499977,,25,Male,Left Handed,Normal,,,,,,,,,,,,,,,,,,,,,,,,,,,,,,,,,,,,,,,,1946.36041199998,1946.372019499977,1946.372019499977,1946.372019499977,1946.372019499977,1946.372019499977,1946.372019499977,1964.0859293999965,['l'],0,[17.69677059998503],[None],1964.0865622999845,1964.100663099991,1964.100663099991,1964.100663099991,1965.3518706999894,5,1.2484204999927897,5,1.2484204999927897,,,,,,,,sub150_AB,001,2026-02-03_12h14.08.392,recognitionstage,,2025.1.1,59.83423523327258,2026-02-03 12h15.04.620043 +0530,
,,,23,23,0,30,frames\Vid30_EM_T.png,frames\Vid30_L.png,['l'],1,[11.700080099981278],[None],2,1.36400090000825,,,,,0,23,23,29,1965.3688236000016,,25,Male,Left Handed,Normal,,,,,,,,,,,,,,,,,,,,,,,,,,,,,,,,,,,,,,,,1965.3611260000034,1965.3688236000016,1965.3688236000016,1965.3688236000016,1965.3688236000016,1965.3688236000016,1965.3688236000016,1977.0697291999822,['l'],1,[11.700080099981278],[None],1977.0707000999828,1977.0841415000032,1977.0841415000032,1977.0841415000032,1978.4514122999972,2,1.36400090000825,2,1.36400090000825,,,,,,,,sub150_AB,001,2026-02-03_12h14.08.392,recognitionstage,,2025.1.1,59.83423523327258,2026-02-03 12h15.04.620043 +0530,
,,,24,24,0,14,frames\Vid14_BB_T.png,frames\Vid14_L.png,['l'],1,[7.222133400005987],[None],5,1.9645435999846086,,,,,0,24,24,13,1978.518652699975,,25,Male,Left Handed,Normal,,,,,,,,,,,,,,,,,,,,,,,,,,,,,,,,,,,,,,,,1978.4986651999934,1978.518652699975,1978.518652699975,1978.518652699975,1978.518652699975,1978.518652699975,1978.518652699975,1985.752842899994,['l'],1,[7.222133400005987],[None],1985.7538385999796,1985.7673474999901,1985.7673474999901,1985.7673474999901,1987.7352087999752,5,1.9645435999846086,5,1.9645435999846086,,,,,,,,sub150_AB,001,2026-02-03_12h14.08.392,recognitionstage,,2025.1.1,59.83423523327258,2026-02-03 12h15.04.620043 +0530,
,,,25,25,0,39,frames\Vid39_BB_T.png,frames\Vid39_L.png,['r'],1,[6.858100699988427],[None],5,1.4653402999974787,,,,,0,25,25,38,1987.7547902999795,,25,Male,Left Handed,Normal,,,,,,,,,,,,,,,,,,,,,,,,,,,,,,,,,,,,,,,,1987.7447367999994,1987.7547902999795,1987.7547902999795,1987.7547902999795,1987.7547902999795,1987.7547902999795,1987.7547902999795,1994.6189043999766,['r'],1,[6.858100699988427],[None],1994.6194393999758,1994.6341975999821,1994.6341975999821,1994.6341975999821,1996.1015465999953,5,1.4653402999974787,5,1.4653402999974787,,,,,,,,sub150_AB,001,2026-02-03_12h14.08.392,recognitionstage,,2025.1.1,59.83423523327258,2026-02-03 12h15.04.620043 +0530,
,,,26,26,0,3,frames\Vid3_BB_T.png,frames\Vid3_L.png,['r'],1,[2.9976351000077557],[None],5,1.3813785999955144,,,,,0,26,26,2,1996.1511735999957,,25,Male,Left Handed,Normal,,,,,,,,,,,,,,,,,,,,,,,,,,,,,,,,,,,,,,,,1996.1412659999914,1996.1511735999957,1996.1511735999957,1996.1511735999957,1996.1511735999957,1996.1511735999957,1996.1511735999957,1999.1526819999854,['r'],1,[2.9976351000077557],[None],1999.1537985999894,1999.1674353999842,1999.1674353999842,1999.1674353999842,2000.5510146000015,5,1.3813785999955144,5,1.3813785999955144,,,,,,,,sub150_AB,001,2026-02-03_12h14.08.392,recognitionstage,,2025.1.1,59.83423523327258,2026-02-03 12h15.04.620043 +0530,
,,,27,27,0,18,frames\Vid18_EM_T.png,frames\Vid18_L.png,['r'],1,[5.712955900002271],[None],5,1.6310559999838006,,,,,0,27,27,17,2000.5718203999859,,25,Male,Left Handed,Normal,,,,,,,,,,,,,,,,,,,,,,,,,,,,,,,,,,,,,,,,2000.5614472999878,2000.5718203999859,2000.5718203999859,2000.5718203999859,2000.5718203999859,2000.5718203999859,2000.5718203999859,2006.2858196999878,['r'],1,[5.712955900002271],[None],2006.286805199983,2006.301271299977,2006.301271299977,2006.301271299977,2007.9351193999755,5,1.6310559999838006,5,1.6310559999838006,,,,,,,,sub150_AB,001,2026-02-03_12h14.08.392,recognitionstage,,2025.1.1,59.83423523327258,2026-02-03 12h15.04.620043 +0530,
,,,28,28,0,1,frames\Vid1_EM_T.png,frames\Vid1_L.png,['l'],1,[5.4355768999957945],[None],5,1.5314154000079725,,,,,0,28,28,0,2008.001241799997,,25,Male,Left Handed,Normal,,,,,,,,,,,,,,,,,,,,,,,,,,,,,,,,,,,,,,,,2007.9805453000008,2008.001241799997,2008.001241799997,2008.001241799997,2008.001241799997,2008.001241799997,2008.001241799997,2013.4534326999856,['l'],1,[5.4355768999957945],[None],2013.4545210999786,2013.4672397999966,2013.4672397999966,2013.4672397999966,2015.0016016000009,5,1.5314154000079725,5,1.5314154000079725,,,,,,,,sub150_AB,001,2026-02-03_12h14.08.392,recognitionstage,,2025.1.1,59.83423523327258,2026-02-03 12h15.04.620043 +0530,
,,,29,29,0,11,frames\Vid11_EM_T.png,frames\Vid11_L.png,['l'],1,[5.534512899990659],[None],5,1.5475348999898415,,,,,0,29,29,10,2015.0541741999914,,25,Male,Left Handed,Normal,,,,,,,,,,,,,,,,,,,,,,,,,,,,,,,,,,,,,,,,2015.0439195999934,2015.0541741999914,2015.0541741999914,2015.0541741999914,2015.0541741999914,2015.0541741999914,2015.0541741999914,2020.602856499987,['l'],1,[5.534512899990659],[None],2020.6037569000036,2020.6169993999938,2020.6169993999938,2020.6169993999938,2022.1681787999987,5,1.5475348999898415,5,1.5475348999898415,,,,,,,,sub150_AB,001,2026-02-03_12h14.08.392,recognitionstage,,2025.1.1,59.83423523327258,2026-02-03 12h15.04.620043 +0530,
,,,30,30,0,19,frames\Vid19_BB_T.png,frames\Vid19_L.png,['r'],0,[9.122104999987641],[None],4,2.2153778999927454,,,,,0,30,30,18,2022.202719599998,,25,Male,Left Handed,Normal,,,,,,,,,,,,,,,,,,,,,,,,,,,,,,,,,,,,,,,,2022.179227399989,2022.202719599998,2022.202719599998,2022.202719599998,2022.202719599998,2022.202719599998,2022.202719599998,2031.3362283000024,['r'],0,[9.122104999987641],[None],2031.3372611999803,2031.3510508000036,2031.3510508000036,2031.3510508000036,2033.567901399976,4,2.2153778999927454,4,2.2153778999927454,,,,,,,,sub150_AB,001,2026-02-03_12h14.08.392,recognitionstage,,2025.1.1,59.83423523327258,2026-02-03 12h15.04.620043 +0530,
,,,31,31,0,7,frames\Vid7_EM_T.png,frames\Vid7_L.png,['r'],1,[5.547034000017447],[None],5,2.130810399976326,,,,,0,31,31,6,2033.6177847999788,,25,Male,Left Handed,Normal,,,,,,,,,,,,,,,,,,,,,,,,,,,,,,,,,,,,,,,,2033.6105225999781,2033.6177847999788,2033.6177847999788,2033.6177847999788,2033.6177847999788,2033.6177847999788,2033.6177847999788,2039.1699768999824,['r'],1,[5.547034000017447],[None],2039.1708973999775,2039.1836860999756,2039.1836860999756,2039.1836860999756,2041.317591500003,5,2.130810399976326,5,2.130810399976326,,,,,,,,sub150_AB,001,2026-02-03_12h14.08.392,recognitionstage,,2025.1.1,59.83423523327258,2026-02-03 12h15.04.620043 +0530,
,,,32,32,0,10,frames\Vid10_BB_T.png,frames\Vid10_L.png,['r'],1,[9.266903199983062],[None],3,2.1304715999867767,,,,,0,32,32,9,2041.3702615999791,,25,Male,Left Handed,Normal,,,,,,,,,,,,,,,,,,,,,,,,,,,,,,,,,,,,,,,,2041.360493699991,2041.3702615999791,2041.3702615999791,2041.3702615999791,2041.3702615999791,2041.3702615999791,2041.3702615999791,2050.6533880999777,['r'],1,[9.266903199983062],[None],2050.6546693999844,2050.667093099997,2050.667093099997,2050.667093099997,2052.801481100003,3,2.1304715999867767,3,2.1304715999867767,,,,,,,,sub150_AB,001,2026-02-03_12h14.08.392,recognitionstage,,2025.1.1,59.83423523327258,2026-02-03 12h15.04.620043 +0530,
,,,33,33,0,35,frames\Vid35_EM_T.png,frames\Vid35_L.png,['r'],1,[3.526190000004135],[None],5,1.481045799999265,,,,,0,33,33,34,2052.8227493999875,,25,Male,Left Handed,Normal,,,,,,,,,,,,,,,,,,,,,,,,,,,,,,,,,,,,,,,,2052.810930699983,2052.8227493999875,2052.8227493999875,2052.8227493999875,2052.8227493999875,2052.8227493999875,2052.8227493999875,2056.352856099984,['r'],1,[3.526190000004135],[None],2056.3537671999948,2056.367083899997,2056.367083899997,2056.367083899997,2057.8515596999787,5,1.481045799999265,5,1.481045799999265,,,,,,,,sub150_AB,001,2026-02-03_12h14.08.392,recognitionstage,,2025.1.1,59.83423523327258,2026-02-03 12h15.04.620043 +0530,
,,,34,34,0,36,frames\Vid36_BB_T.png,frames\Vid36_L.png,['l'],1,[6.105032099992968],[None],5,1.5650345000030939,,,,,0,34,34,35,2057.883758699987,,25,Male,Left Handed,Normal,,,,,,,,,,,,,,,,,,,,,,,,,,,,,,,,,,,,,,,,2057.8653100999945,2057.883758699987,2057.883758699987,2057.883758699987,2057.883758699987,2057.883758699987,2057.883758699987,2064.0026705999917,['l'],1,[6.105032099992968],[None],2064.003689199977,2064.0171571999963,2064.0171571999963,2064.0171571999963,2065.5845976999844,5,1.5650345000030939,5,1.5650345000030939,,,,,,,,sub150_AB,001,2026-02-03_12h14.08.392,recognitionstage,,2025.1.1,59.83423523327258,2026-02-03 12h15.04.620043 +0530,
,,,35,35,0,22,frames\Vid22_EM_T.png,frames\Vid22_L.png,['r'],1,[6.347722200007411],[None],5,1.3804416000202764,,,,,0,35,35,21,2065.617317600001,,25,Male,Left Handed,Normal,,,,,,,,,,,,,,,,,,,,,,,,,,,,,,,,,,,,,,,,2065.596849099995,2065.617317600001,2065.617317600001,2065.617317600001,2065.617317600001,2065.617317600001,2065.617317600001,2071.9706513999845,['r'],1,[6.347722200007411],[None],2071.97159869998,2071.98396089999,2071.98396089999,2071.98396089999,2073.3680614999903,5,1.3804416000202764,5,1.3804416000202764,,,,,,,,sub150_AB,001,2026-02-03_12h14.08.392,recognitionstage,,2025.1.1,59.83423523327258,2026-02-03 12h15.04.620043 +0530,
,,,36,36,0,6,frames\Vid6_BB_T.png,frames\Vid6_L.png,['l'],1,[5.018425999995088],[None],5,1.531466200016439,,,,,0,36,36,5,2073.434694399999,,25,Male,Left Handed,Normal,,,,,,,,,,,,,,,,,,,,,,,,,,,,,,,,,,,,,,,,2073.412709700002,2073.434694399999,2073.434694399999,2073.434694399999,2073.434694399999,2073.434694399999,2073.434694399999,2078.4690171999973,['l'],1,[5.018425999995088],[None],2078.4701713999966,2078.484424800001,2078.484424800001,2078.484424800001,2080.018004999991,5,1.531466200016439,5,1.531466200016439,,,,,,,,sub150_AB,001,2026-02-03_12h14.08.392,recognitionstage,,2025.1.1,59.83423523327258,2026-02-03 12h15.04.620043 +0530,
,,,37,37,0,40,frames\Vid40_EM_T.png,frames\Vid40_L.png,['l'],1,[8.989966900000582],[None],5,1.3979974999965634,,,,,0,37,37,39,2080.0388301999774,,25,Male,Left Handed,Normal,,,,,,,,,,,,,,,,,,,,,,,,,,,,,,,,,,,,,,,,2080.0248203999945,2080.0388301999774,2080.0388301999774,2080.0388301999774,2080.0388301999774,2080.0388301999774,2080.0388301999774,2089.0360070999886,['l'],1,[8.989966900000582],[None],2089.0370138,2089.0508770000015,2089.0508770000015,2089.0508770000015,2090.4516130999837,5,1.3979974999965634,5,1.3979974999965634,,,,,,,,sub150_AB,001,2026-02-03_12h14.08.392,recognitionstage,,2025.1.1,59.83423523327258,2026-02-03 12h15.04.620043 +0530,
,,,38,38,0,13,frames\Vid13_BB_T.png,frames\Vid13_L.png,['r'],1,[17.631961999984924],[None],1,1.483027200010838,,,,,0,38,38,12,2090.50079749999,,25,Male,Left Handed,Normal,,,,,,,,,,,,,,,,,,,,,,,,,,,,,,,,,,,,,,,,2090.4860931999865,2090.50079749999,2090.50079749999,2090.50079749999,2090.50079749999,2090.50079749999,2090.50079749999,2108.135220700002,['r'],1,[17.631961999984924],[None],2108.136009399983,2108.151323799975,2108.151323799975,2108.151323799975,2109.6350061999983,1,1.483027200010838,1,1.483027200010838,,,,,,,,sub150_AB,001,2026-02-03_12h14.08.392,recognitionstage,,2025.1.1,59.83423523327258,2026-02-03 12h15.04.620043 +0530,
,,,39,39,0,26,frames\Vid26_EM_T.png,frames\Vid26_L.png,['r'],1,[38.90329180000117],[None],4,3.181066199991619,,,,,0,39,39,25,2109.6696490999893,,25,Male,Left Handed,Normal,,,,,,,,,,,,,,,,,,,,,,,,,,,,,,,,,,,,,,,,2109.6509700999886,2109.6696490999893,2109.6696490999893,2109.6696490999893,2109.6696490999893,2109.6696490999893,2109.6696490999893,2148.586798399978,['r'],1,[38.90329180000117],[None],2148.5882217999897,2148.6005410999933,2148.6005410999933,2148.6005410999933,2151.7848038999946,4,3.181066199991619,4,3.181066199991619,,,,,,,,sub150_AB,001,2026-02-03_12h14.08.392,recognitionstage,,2025.1.1,59.83423523327258,2026-02-03 12h15.04.620043 +0530,
,,,,,,,,,,,,,,,,,,,,,,,,,25,Male,Left Handed,Normal,,,,,,,,,,,,,,,,,,,,,,,,,,,,,,,,,,,,,,,,,,,,,,,,,,,,,,,,,,,,,2151.7849016999826,2151.8010202999867,2151.8010202999867,2155.1680984999985,space,3.3637878999870736,None,sub150_AB,001,2026-02-03_12h14.08.392,recognitionstage,,2025.1.1,59.83423523327258,2026-02-03 12h15.04.620043 +0530,
