path,duration,is_repeat,thisN,thisTrialN,thisRepN,movie_id,target_img,lure_img,resp.keys,resp.corr,resp.rt,resp.duration,conf_radio.response,conf_radio.rt,movie.thisRepN,movie.thisTrialN,movie.thisN,movie.thisIndex,recogloop.thisRepN,recogloop.thisTrialN,recogloop.thisN,recogloop.thisIndex,thisRow.t,notes,age,gender,handedness,vision,caffeine_2h,alcohol_smoke_12h,demographics.started,demographics.stopped,Instructions.started,text1.started,key_resp.started,Instructions.stopped,key_resp.keys,key_resp.rt,key_resp.duration,instruction_2.started,text2.started,key_resp_2.started,instruction_2.stopped,key_resp_2.keys,key_resp_2.rt,key_resp_2.duration,Videos.started,movie_2.started,vigilance_resp.started,movie_2.stopped,Videos.stopped,movie.vigilance_resp.keys,vigilance_pressed,vigilance_correct,ISI.started,text.started,ISI.stopped,text.stopped,movie.vigilance_resp.rt,movie.vigilance_resp.duration,recognition.started,text_4.started,key_resp_3.started,recognition.stopped,key_resp_3.keys,key_resp_3.rt,key_resp_3.duration,recognition_task.started,leftimage.started,rightimage.started,resp.started,frames_question.started,right_label.started,left_label.started,recognition_task.stopped,recogloop.resp.keys,recogloop.resp.corr,recogloop.resp.rt,recogloop.resp.duration,confidence.started,conf_text.started,conf_radio.started,conf_label.started,confidence.stopped,recogloop.conf_radio.response,recogloop.conf_radio.rt,confidence,confidence_rt,thank_you.started,text_6.started,key_resp_4.started,thank_you.stopped,key_resp_4.keys,participant,session,date,expName,expVersion,psychopyVersion,frameRate,expStart,...103
,,,,,,,,,,,,,,,,,,,,,,,,,25,Male,Left Handed,Normal,Caffeine consumed in last 2 hours?,Alcohol or smoking in last 12 hours?,0.009924800018779933,0.012387399998260662,,,,,,,,,,,,,,,,,,,,,,,,,,,,,,,,,,,,,,,,,,,,,,,,,,,,,,,,,,,,,,hello001,001,2026-02-04_12h12.17.378,recognitionstage,,2025.1.1,59.90186876102675,2026-02-04 12h12.43.841781 +0530,
,,,,,,,,,,,,,,,,,,,,,,,,,25,Male,Left Handed,Normal,,,,,0.012409000017214566,0.028570800001034513,0.028570800001034513,21.898218500020448,space,21.859992199984845,None,,,,,,,,,,,,,,,,,,,,,,,,,,,,,,,,,,,,,,,,,,,,,,,,,,,,,,,hello001,001,2026-02-04_12h12.17.378,recognitionstage,,2025.1.1,59.90186876102675,2026-02-04 12h12.43.841781 +0530,
,,,,,,,,,,,,,,,,,,,,,,,,,25,Male,Left Handed,Normal,,,,,,,,,,,,21.89828480000142,21.913316499994835,21.913316499994835,28.046896999992896,space,6.127093699993566,None,,,,,,,,,,,,,,,,,,,,,,,,,,,,,,,,,,,,,,,,,,,,,,,,hello001,001,2026-02-04_12h12.17.378,recognitionstage,,2025.1.1,59.90186876102675,2026-02-04 12h12.43.841781 +0530,
Trimmed_videos/natural_22.mp4,34,0,44,44,0,,,,,,,,,,0,44,44,24,,,,,1511.7442414000107,,25,Male,Left Handed,Normal,,,,,,,,,,,,,,,,,,,1511.6989455000148,1511.7442414000107,1511.7442414000107,1546.3428131999972,1546.2003614999994,None,0,1,1546.3348816999933,1546.3428131999972,1548.8314432000043,1548.8453475999995,1.626837699994212,None,1548.8315978000173,1548.8453475999995,1548.8453475999995,1580.8304523999977,space,31.978621199988993,None,,,,,,,,,,,,,,,,,,,,,,,,,,,hello001,001,2026-02-04_12h12.17.378,recognitionstage,,2025.1.1,59.90186876102675,2026-02-04 12h12.43.841781 +0530,
,,,0,0,0,20,frames\Vid20_EM_T.png,frames\Vid20_L.png,['l'],1,[3.7398217000009026],[None],5,6.1144987999869045,,,,,0,0,0,19,1580.8597135000164,,25,Male,Left Handed,Normal,,,,,,,,,,,,,,,,,,,,,,,,,,,,,,,,,,,,,,,,1580.8458561000007,1580.8597135000164,1580.8597135000164,1580.8597135000164,1580.8597135000164,1580.8597135000164,1580.8597135000164,1584.6133703000087,['l'],1,[3.7398217000009026],[None],1584.6143825000036,1584.642308200011,1584.642308200011,1584.642308200011,1590.7449904000096,5,6.1144987999869045,5,6.1144987999869045,,,,,,hello001,001,2026-02-04_12h12.17.378,recognitionstage,,2025.1.1,59.90186876102675,2026-02-04 12h12.43.841781 +0530,
,,,1,1,0,21,frames\Vid21_BB_T.png,frames\Vid21_L.png,['r'],1,[8.054923499992583],[None],5,2.131514499982586,,,,,0,1,1,20,1590.776614100003,,25,Male,Left Handed,Normal,,,,,,,,,,,,,,,,,,,,,,,,,,,,,,,,,,,,,,,,1590.7614582999959,1590.776614100003,1590.776614100003,1590.776614100003,1590.776614100003,1590.776614100003,1590.776614100003,1598.84611090002,['r'],1,[8.054923499992583],[None],1598.8470672999974,1598.8612645000103,1598.8612645000103,1598.8612645000103,1600.9953201000171,5,2.131514499982586,5,2.131514499982586,,,,,,hello001,001,2026-02-04_12h12.17.378,recognitionstage,,2025.1.1,59.90186876102675,2026-02-04 12h12.43.841781 +0530,
,,,2,2,0,18,frames\Vid18_EM_T.png,frames\Vid18_L.png,['l'],1,[4.811958199978108],[None],4,4.480424599983962,,,,,0,2,2,17,1601.027730700007,,25,Male,Left Handed,Normal,,,,,,,,,,,,,,,,,,,,,,,,,,,,,,,,,,,,,,,,1601.0086524999933,1601.027730700007,1601.027730700007,1601.027730700007,1601.027730700007,1601.027730700007,1601.027730700007,1605.8468794999935,['l'],1,[4.811958199978108],[None],1605.8479146000172,1605.8608819000074,1605.8608819000074,1605.8608819000074,1610.3460215000086,4,4.480424599983962,4,4.480424599983962,,,,,,hello001,001,2026-02-04_12h12.17.378,recognitionstage,,2025.1.1,59.90186876102675,2026-02-04 12h12.43.841781 +0530,
,,,3,3,0,10,frames\Vid10_BB_T.png,frames\Vid10_L.png,['l'],1,[3.739716599986423],[None],4,1.8976362999819685,,,,,0,3,3,9,1610.411840500019,,25,Male,Left Handed,Normal,,,,,,,,,,,,,,,,,,,,,,,,,,,,,,,,,,,,,,,,1610.3917431000154,1610.411840500019,1610.411840500019,1610.411840500019,1610.411840500019,1610.411840500019,1610.411840500019,1614.1638598999998,['l'],1,[3.739716599986423],[None],1614.1649627000152,1614.1780853999953,1614.1780853999953,1614.1780853999953,1616.0785545000108,4,1.8976362999819685,4,1.8976362999819685,,,,,,hello001,001,2026-02-04_12h12.17.378,recognitionstage,,2025.1.1,59.90186876102675,2026-02-04 12h12.43.841781 +0530,
,,,4,4,0,22,frames\Vid22_EM_T.png,frames\Vid22_L.png,['r'],1,[3.746091899985913],[None],5,2.165402599988738,,,,,0,4,4,21,1616.1096346999984,,25,Male,Left Handed,Normal,,,,,,,,,,,,,,,,,,,,,,,,,,,,,,,,,,,,,,,,1616.1051427000202,1616.1096346999984,1616.1096346999984,1616.1096346999984,1616.1096346999984,1616.1096346999984,1616.1096346999984,1619.8633169000095,['r'],1,[3.746091899985913],[None],1619.8641676999978,1619.8776328999957,1619.8776328999957,1619.8776328999957,1622.0453097000136,5,2.165402599988738,5,2.165402599988738,,,,,,hello001,001,2026-02-04_12h12.17.378,recognitionstage,,2025.1.1,59.90186876102675,2026-02-04 12h12.43.841781 +0530,
,,,5,5,0,16,frames\Vid16_EM_T.png,frames\Vid16_L.png,['l'],1,[10.496422100026393],[None],3,2.0816048000124283,,,,,0,5,5,15,1622.0951596999948,,25,Male,Left Handed,Normal,,,,,,,,,,,,,,,,,,,,,,,,,,,,,,,,,,,,,,,,1622.08452460001,1622.0951596999948,1622.0951596999948,1622.0951596999948,1622.0951596999948,1622.0951596999948,1622.0951596999948,1632.5965473999968,['l'],1,[10.496422100026393],[None],1632.5976293999993,1632.6114506000013,1632.6114506000013,1632.6114506000013,1634.694994199992,3,2.0816048000124283,3,2.0816048000124283,,,,,,hello001,001,2026-02-04_12h12.17.378,recognitionstage,,2025.1.1,59.90186876102675,2026-02-04 12h12.43.841781 +0530,
,,,6,6,0,30,frames\Vid30_EM_T.png,frames\Vid30_L.png,['r'],1,[4.828206999984104],[None],4,1.964608500013128,,,,,0,6,6,29,1634.73137210001,,25,Male,Left Handed,Normal,,,,,,,,,,,,,,,,,,,,,,,,,,,,,,,,,,,,,,,,1634.7068062000035,1634.73137210001,1634.73137210001,1634.73137210001,1634.73137210001,1634.73137210001,1634.73137210001,1639.5629894000012,['r'],1,[4.828206999984104],[None],1639.5638087000116,1639.5779429000104,1639.5779429000104,1639.5779429000104,1641.544980400009,4,1.964608500013128,4,1.964608500013128,,,,,,hello001,001,2026-02-04_12h12.17.378,recognitionstage,,2025.1.1,59.90186876102675,2026-02-04 12h12.43.841781 +0530,
,,,7,7,0,6,frames\Vid6_BB_T.png,frames\Vid6_L.png,['r'],1,[2.972065699985251],[None],5,1.6479038000106812,,,,,0,7,7,5,1641.6115205000096,,25,Male,Left Handed,Normal,,,,,,,,,,,,,,,,,,,,,,,,,,,,,,,,,,,,,,,,1641.588634100015,1641.6115205000096,1641.6115205000096,1641.6115205000096,1641.6115205000096,1641.6115205000096,1641.6115205000096,1644.596345500002,['r'],1,[2.972065699985251],[None],1644.5971065000049,1644.6108892000047,1644.6108892000047,1644.6108892000047,1646.2624341000046,5,1.6479038000106812,5,1.6479038000106812,,,,,,hello001,001,2026-02-04_12h12.17.378,recognitionstage,,2025.1.1,59.90186876102675,2026-02-04 12h12.43.841781 +0530,
,,,8,8,0,36,frames\Vid36_BB_T.png,frames\Vid36_L.png,['l'],0,[11.470047500013607],[None],1,2.4151912999805063,,,,,0,8,8,35,1646.2974957000115,,25,Male,Left Handed,Normal,,,,,,,,,,,,,,,,,,,,,,,,,,,,,,,,,,,,,,,,1646.2758888000099,1646.2974957000115,1646.2974957000115,1646.2974957000115,1646.2974957000115,1646.2974957000115,1646.2974957000115,1657.7799151999934,['l'],0,[11.470047500013607],[None],1657.780720700015,1657.7941044000036,1657.7941044000036,1657.7941044000036,1660.2123067000066,1,2.4151912999805063,1,2.4151912999805063,,,,,,hello001,001,2026-02-04_12h12.17.378,recognitionstage,,2025.1.1,59.90186876102675,2026-02-04 12h12.43.841781 +0530,
,,,9,9,0,4,frames\Vid4_EM_T.png,frames\Vid4_L.png,['r'],1,[6.6409440000134055],[None],3,2.8650450999848545,,,,,0,9,9,3,1660.2786430999986,,25,Male,Left Handed,Normal,,,,,,,,,,,,,,,,,,,,,,,,,,,,,,,,,,,,,,,,1660.2587246000185,1660.2786430999986,1660.2786430999986,1660.2786430999986,1660.2786430999986,1660.2786430999986,1660.2786430999986,1666.9296684,['r'],1,[6.6409440000134055],[None],1666.9304779999948,1666.9441169000056,1666.9441169000056,1666.9441169000056,1669.8118915999949,3,2.8650450999848545,3,2.8650450999848545,,,,,,hello001,001,2026-02-04_12h12.17.378,recognitionstage,,2025.1.1,59.90186876102675,2026-02-04 12h12.43.841781 +0530,
,,,10,10,0,23,frames\Vid23_EM_T.png,frames\Vid23_L.png,['r'],1,[3.7284119999967515],[None],5,1.697764200012898,,,,,0,10,10,22,1669.847266900004,,25,Male,Left Handed,Normal,,,,,,,,,,,,,,,,,,,,,,,,,,,,,,,,,,,,,,,,1669.8270276999974,1669.847266900004,1669.847266900004,1669.847266900004,1669.847266900004,1669.847266900004,1669.847266900004,1673.5796345999988,['r'],1,[3.7284119999967515],[None],1673.5805164000194,1673.594562800019,1673.594562800019,1673.594562800019,1675.295801100001,5,1.697764200012898,5,1.697764200012898,,,,,,hello001,001,2026-02-04_12h12.17.378,recognitionstage,,2025.1.1,59.90186876102675,2026-02-04 12h12.43.841781 +0530,
,,,11,11,0,24,frames\Vid24_BB_T.png,frames\Vid24_L.png,['r'],1,[4.935882399993716],[None],4,3.0644593999895733,,,,,0,11,11,23,1675.3277608999924,,25,Male,Left Handed,Normal,,,,,,,,,,,,,,,,,,,,,,,,,,,,,,,,,,,,,,,,1675.3091891999939,1675.3277608999924,1675.3277608999924,1675.3277608999924,1675.3277608999924,1675.3277608999924,1675.3277608999924,1680.2797627999971,['r'],1,[4.935882399993716],[None],1680.2804603000113,1680.2939906000101,1680.2939906000101,1680.2939906000101,1683.36228880001,4,3.0644593999895733,4,3.0644593999895733,,,,,,hello001,001,2026-02-04_12h12.17.378,recognitionstage,,2025.1.1,59.90186876102675,2026-02-04 12h12.43.841781 +0530,
,,,12,12,0,7,frames\Vid7_EM_T.png,frames\Vid7_L.png,['l'],0,[8.051585000008345],[None],4,2.9648486000078265,,,,,0,12,12,6,1683.4281268000195,,25,Male,Left Handed,Normal,,,,,,,,,,,,,,,,,,,,,,,,,,,,,,,,,,,,,,,,1683.4058906999999,1683.4281268000195,1683.4281268000195,1683.4281268000195,1683.4281268000195,1683.4281268000195,1683.4281268000195,1691.495945200004,['l'],0,[8.051585000008345],[None],1691.4968718000164,1691.511264700006,1691.511264700006,1691.511264700006,1694.4785204000073,4,2.9648486000078265,4,2.9648486000078265,,,,,,hello001,001,2026-02-04_12h12.17.378,recognitionstage,,2025.1.1,59.90186876102675,2026-02-04 12h12.43.841781 +0530,
,,,13,13,0,19,frames\Vid19_BB_T.png,frames\Vid19_L.png,['r'],1,[8.14999980002176],[None],4,2.9152061000058893,,,,,0,13,13,18,1694.5136872000003,,25,Male,Left Handed,Normal,,,,,,,,,,,,,,,,,,,,,,,,,,,,,,,,,,,,,,,,1694.4899250000017,1694.5136872000003,1694.5136872000003,1694.5136872000003,1694.5136872000003,1694.5136872000003,1694.5136872000003,1702.6794901000103,['r'],1,[8.14999980002176],[None],1702.6803860999935,1702.6945616000157,1702.6945616000157,1702.6945616000157,1705.6113845999935,4,2.9152061000058893,4,2.9152061000058893,,,,,,hello001,001,2026-02-04_12h12.17.378,recognitionstage,,2025.1.1,59.90186876102675,2026-02-04 12h12.43.841781 +0530,
,,,14,14,0,5,frames\Vid5_EM_T.png,frames\Vid5_L.png,['r'],1,[15.673937499988824],[None],1,1.5800281999981962,,,,,0,14,14,4,1705.6616373000143,,25,Male,Left Handed,Normal,,,,,,,,,,,,,,,,,,,,,,,,,,,,,,,,,,,,,,,,1705.6403164000076,1705.6616373000143,1705.6616373000143,1705.6616373000143,1705.6616373000143,1705.6616373000143,1705.6616373000143,1721.3475872999988,['r'],1,[15.673937499988824],[None],1721.3487955000019,1721.3759683000098,1721.3759683000098,1721.3759683000098,1722.9450253999967,1,1.5800281999981962,1,1.5800281999981962,,,,,,hello001,001,2026-02-04_12h12.17.378,recognitionstage,,2025.1.1,59.90186876102675,2026-02-04 12h12.43.841781 +0530,
,,,15,15,0,13,frames\Vid13_BB_T.png,frames\Vid13_L.png,['r'],1,[3.3786256999883335],[None],3,1.5311015999759547,,,,,0,15,15,12,1722.9970748000196,,25,Male,Left Handed,Normal,,,,,,,,,,,,,,,,,,,,,,,,,,,,,,,,,,,,,,,,1722.980386900017,1722.9970748000196,1722.9970748000196,1722.9970748000196,1722.9970748000196,1722.9970748000196,1722.9970748000196,1726.380236099998,['r'],1,[3.3786256999883335],[None],1726.3811797999952,1726.3943671000015,1726.3943671000015,1726.3943671000015,1727.928143600002,3,1.5311015999759547,3,1.5311015999759547,,,,,,hello001,001,2026-02-04_12h12.17.378,recognitionstage,,2025.1.1,59.90186876102675,2026-02-04 12h12.43.841781 +0530,
,,,16,16,0,35,frames\Vid35_EM_T.png,frames\Vid35_L.png,['r'],1,[6.20259050000459],[None],2,1.7466262000089046,,,,,0,16,16,34,1727.9489768000203,,25,Male,Left Handed,Normal,,,,,,,,,,,,,,,,,,,,,,,,,,,,,,,,,,,,,,,,1727.9370342000038,1727.9489768000203,1727.9489768000203,1727.9489768000203,1727.9489768000203,1727.9489768000203,1727.9489768000203,1734.1640888999973,['r'],1,[6.20259050000459],[None],1734.165322100016,1734.1925611000042,1734.1925611000042,1734.1925611000042,1735.9283557000163,2,1.7466262000089046,2,1.7466262000089046,,,,,,hello001,001,2026-02-04_12h12.17.378,recognitionstage,,2025.1.1,59.90186876102675,2026-02-04 12h12.43.841781 +0530,
,,,17,17,0,25,frames\Vid25_BB_T.png,frames\Vid25_L.png,['l'],1,[6.13336970002274],[None],2,1.9150767999817617,,,,,0,17,17,24,1735.9462058999925,,25,Male,Left Handed,Normal,,,,,,,,,,,,,,,,,,,,,,,,,,,,,,,,,,,,,,,,1735.9381330000178,1735.9462058999925,1735.9462058999925,1735.9462058999925,1735.9462058999925,1735.9462058999925,1735.9462058999925,1742.0800961000205,['l'],1,[6.13336970002274],[None],1742.0809094000142,1742.0943164000055,1742.0943164000055,1742.0943164000055,1744.0122724999965,2,1.9150767999817617,2,1.9150767999817617,,,,,,hello001,001,2026-02-04_12h12.17.378,recognitionstage,,2025.1.1,59.90186876102675,2026-02-04 12h12.43.841781 +0530,
,,,18,18,0,31,frames\Vid31_EM_T.png,frames\Vid31_L.png,['l'],1,[3.5061473000096157],[None],5,1.481020900013391,,,,,0,18,18,30,1744.0294066000206,,25,Male,Left Handed,Normal,,,,,,,,,,,,,,,,,,,,,,,,,,,,,,,,,,,,,,,,1744.0204279000172,1744.0294066000206,1744.0294066000206,1744.0294066000206,1744.0294066000206,1744.0294066000206,1744.0294066000206,1747.5466198000067,['l'],1,[3.5061473000096157],[None],1747.547586700006,1747.5606954999967,1747.5606954999967,1747.5606954999967,1749.0457668000017,5,1.481020900013391,5,1.481020900013391,,,,,,hello001,001,2026-02-04_12h12.17.378,recognitionstage,,2025.1.1,59.90186876102675,2026-02-04 12h12.43.841781 +0530,
,,,19,19,0,17,frames\Vid17_BB_T.png,frames\Vid17_L.png,['l'],1,[5.777899700013222],[None],3,1.5459677999897394,,,,,0,19,19,16,1749.0777725999942,,25,Male,Left Handed,Normal,,,,,,,,,,,,,,,,,,,,,,,,,,,,,,,,,,,,,,,,1749.0705893000122,1749.0777725999942,1749.0777725999942,1749.0777725999942,1749.0777725999942,1749.0777725999942,1749.0777725999942,1754.864825800003,['l'],1,[5.777899700013222],[None],1754.8668324000027,1754.892422200006,1754.892422200006,1754.892422200006,1756.4279795000039,3,1.5459677999897394,3,1.5459677999897394,,,,,,hello001,001,2026-02-04_12h12.17.378,recognitionstage,,2025.1.1,59.90186876102675,2026-02-04 12h12.43.841781 +0530,
,,,20,20,0,1,frames\Vid1_EM_T.png,frames\Vid1_L.png,['r'],1,[10.727524799993262],[None],5,1.8294174000038765,,,,,0,20,20,0,1756.4962290000112,,25,Male,Left Handed,Normal,,,,,,,,,,,,,,,,,,,,,,,,,,,,,,,,,,,,,,,,1756.4732184000022,1756.4962290000112,1756.4962290000112,1756.4962290000112,1756.4962290000112,1756.4962290000112,1756.4962290000112,1767.2308513000025,['r'],1,[10.727524799993262],[None],1767.23218240001,1767.2444367000135,1767.2444367000135,1767.2444367000135,1769.078874400002,5,1.8294174000038765,5,1.8294174000038765,,,,,,hello001,001,2026-02-04_12h12.17.378,recognitionstage,,2025.1.1,59.90186876102675,2026-02-04 12h12.43.841781 +0530,
,,,21,21,0,28,frames\Vid28_EM_T.png,frames\Vid28_L.png,['l'],1,[4.22137779998593],[None],5,1.7304323999851476,,,,,0,21,21,27,1769.1142995000118,,25,Male,Left Handed,Normal,,,,,,,,,,,,,,,,,,,,,,,,,,,,,,,,,,,,,,,,1769.088772100018,1769.1142995000118,1769.1142995000118,1769.1142995000118,1769.1142995000118,1769.1142995000118,1769.1142995000118,1773.3468376999954,['l'],1,[4.22137779998593],[None],1773.3480976000137,1773.3762760999962,1773.3762760999962,1773.3762760999962,1775.0951346000074,5,1.7304323999851476,5,1.7304323999851476,,,,,,hello001,001,2026-02-04_12h12.17.378,recognitionstage,,2025.1.1,59.90186876102675,2026-02-04 12h12.43.841781 +0530,
,,,22,22,0,9,frames\Vid9_EM_T.png,frames\Vid9_L.png,['l'],1,[6.518677600019146],[None],1,1.8475426000077277,,,,,0,22,22,8,1775.145028800005,,25,Male,Left Handed,Normal,,,,,,,,,,,,,,,,,,,,,,,,,,,,,,,,,,,,,,,,1775.129952999996,1775.145028800005,1775.145028800005,1775.145028800005,1775.145028800005,1775.145028800005,1775.145028800005,1781.680309999996,['l'],1,[6.518677600019146],[None],1781.681418399996,1781.6944834000024,1781.6944834000024,1781.6944834000024,1783.5448703000147,1,1.8475426000077277,1,1.8475426000077277,,,,,,hello001,001,2026-02-04_12h12.17.378,recognitionstage,,2025.1.1,59.90186876102675,2026-02-04 12h12.43.841781 +0530,
,,,23,23,0,11,frames\Vid11_EM_T.png,frames\Vid11_L.png,['l'],1,[2.4102467999910004],[None],5,2.497738500009291,,,,,0,23,23,10,1783.5972800000163,,25,Male,Left Handed,Normal,,,,,,,,,,,,,,,,,,,,,,,,,,,,,,,,,,,,,,,,1783.5886592000024,1783.5972800000163,1783.5972800000163,1783.5972800000163,1783.5972800000163,1783.5972800000163,1783.5972800000163,1786.0136312000104,['l'],1,[2.4102467999910004],[None],1786.0147304999991,1786.027455500007,1786.027455500007,1786.027455500007,1788.5285403000016,5,2.497738500009291,5,2.497738500009291,,,,,,hello001,001,2026-02-04_12h12.17.378,recognitionstage,,2025.1.1,59.90186876102675,2026-02-04 12h12.43.841781 +0530,
,,,24,24,0,12,frames\Vid12_EM_T.png,frames\Vid12_L.png,['r'],1,[4.22622229999979],[None],5,1.8318525000067893,,,,,0,24,24,11,1788.5973623000027,,25,Male,Left Handed,Normal,,,,,,,,,,,,,,,,,,,,,,,,,,,,,,,,,,,,,,,,1788.5731055999931,1788.5973623000027,1788.5973623000027,1788.5973623000027,1788.5973623000027,1788.5973623000027,1788.5973623000027,1792.8294891999976,['r'],1,[4.22622229999979],[None],1792.8304512000177,1792.8446808000153,1792.8446808000153,1792.8446808000153,1794.6784533000027,5,1.8318525000067893,5,1.8318525000067893,,,,,,hello001,001,2026-02-04_12h12.17.378,recognitionstage,,2025.1.1,59.90186876102675,2026-02-04 12h12.43.841781 +0530,
,,,25,25,0,14,frames\Vid14_BB_T.png,frames\Vid14_L.png,['r'],0,[7.187550100003136],[None],2,1.8824386000051163,,,,,0,25,25,13,1794.7478766000131,,25,Male,Left Handed,Normal,,,,,,,,,,,,,,,,,,,,,,,,,,,,,,,,,,,,,,,,1794.7227918000135,1794.7478766000131,1794.7478766000131,1794.7478766000131,1794.7478766000131,1794.7478766000131,1794.7478766000131,1801.9456874000025,['r'],0,[7.187550100003136],[None],1801.9465322000033,1801.9612645000161,1801.9612645000161,1801.9612645000161,1803.8446298000054,2,1.8824386000051163,2,1.8824386000051163,,,,,,hello001,001,2026-02-04_12h12.17.378,recognitionstage,,2025.1.1,59.90186876102675,2026-02-04 12h12.43.841781 +0530,
,,,26,26,0,33,frames\Vid33_BB_T.png,frames\Vid33_L.png,['r'],0,[12.269674300012412],[None],2,1.931335000001127,,,,,0,26,26,32,1803.8658724999987,,25,Male,Left Handed,Normal,,,,,,,,,,,,,,,,,,,,,,,,,,,,,,,,,,,,,,,,1803.853462900006,1803.8658724999987,1803.8658724999987,1803.8658724999987,1803.8658724999987,1803.8658724999987,1803.8658724999987,1816.1458148999955,['r'],0,[12.269674300012412],[None],1816.1470165000064,1816.1616289000085,1816.1616289000085,1816.1616289000085,1818.0958872000047,2,1.931335000001127,2,1.931335000001127,,,,,,hello001,001,2026-02-04_12h12.17.378,recognitionstage,,2025.1.1,59.90186876102675,2026-02-04 12h12.43.841781 +0530,
,,,27,27,0,40,frames\Vid40_EM_T.png,frames\Vid40_L.png,['r'],1,[7.799077299976489],[None],1,2.1488615999987815,,,,,0,27,27,39,1818.1124193000142,,25,Male,Left Handed,Normal,,,,,,,,,,,,,,,,,,,,,,,,,,,,,,,,,,,,,,,,1818.1032634000003,1818.1124193000142,1818.1124193000142,1818.1124193000142,1818.1124193000142,1818.1124193000142,1818.1124193000142,1825.9128689000208,['r'],1,[7.799077299976489],[None],1825.913689900015,1825.9282912000199,1825.9282912000199,1825.9282912000199,1828.0780027,1,2.1488615999987815,1,2.1488615999987815,,,,,,hello001,001,2026-02-04_12h12.17.378,recognitionstage,,2025.1.1,59.90186876102675,2026-02-04 12h12.43.841781 +0530,
,,,28,28,0,8,frames\Vid8_BB_T.png,frames\Vid8_L.png,['l'],0,[3.983431800006656],[None],2,1.5313081000058446,,,,,0,28,28,7,1828.1280706000107,,25,Male,Left Handed,Normal,,,,,,,,,,,,,,,,,,,,,,,,,,,,,,,,,,,,,,,,1828.1160297000024,1828.1280706000107,1828.1280706000107,1828.1280706000107,1828.1280706000107,1828.1280706000107,1828.1280706000107,1832.1131908000098,['l'],0,[3.983431800006656],[None],1832.1141134999925,1832.1274592000118,1832.1274592000118,1832.1274592000118,1833.661057899997,2,1.5313081000058446,2,1.5313081000058446,,,,,,hello001,001,2026-02-04_12h12.17.378,recognitionstage,,2025.1.1,59.90186876102675,2026-02-04 12h12.43.841781 +0530,
,,,29,29,0,39,frames\Vid39_BB_T.png,frames\Vid39_L.png,['l'],1,[6.525391200004378],[None],3,1.4983595999947283,,,,,0,29,29,38,1833.6822223000054,,25,Male,Left Handed,Normal,,,,,,,,,,,,,,,,,,,,,,,,,,,,,,,,,,,,,,,,1833.6686631000193,1833.6822223000054,1833.6822223000054,1833.6822223000054,1833.6822223000054,1833.6822223000054,1833.6822223000054,1840.2129235000175,['l'],1,[6.525391200004378],[None],1840.2137380000204,1840.2274402000185,1840.2274402000185,1840.2274402000185,1841.7278473000042,3,1.4983595999947283,3,1.4983595999947283,,,,,,hello001,001,2026-02-04_12h12.17.378,recognitionstage,,2025.1.1,59.90186876102675,2026-02-04 12h12.43.841781 +0530,
,,,30,30,0,15,frames\Vid15_BB_T.png,frames\Vid15_L.png,['l'],1,[6.780847800022457],[None],4,2.2308962999959476,,,,,0,30,30,14,1841.7947830000194,,25,Male,Left Handed,Normal,,,,,,,,,,,,,,,,,,,,,,,,,,,,,,,,,,,,,,,,1841.7741692000127,1841.7947830000194,1841.7947830000194,1841.7947830000194,1841.7947830000194,1841.7947830000194,1841.7947830000194,1848.580520699994,['l'],1,[6.780847800022457],[None],1848.5814658000018,1848.5942860000068,1848.5942860000068,1848.5942860000068,1850.8283498999954,4,2.2308962999959476,4,2.2308962999959476,,,,,,hello001,001,2026-02-04_12h12.17.378,recognitionstage,,2025.1.1,59.90186876102675,2026-02-04 12h12.43.841781 +0530,
,,,31,31,0,38,frames\Vid38_EM_T.png,frames\Vid38_L.png,['l'],1,[6.374454200005857],[None],2,1.9305099000048358,,,,,0,31,31,37,1850.8492872000206,,25,Male,Left Handed,Normal,,,,,,,,,,,,,,,,,,,,,,,,,,,,,,,,,,,,,,,,1850.837427499995,1850.8492872000206,1850.8492872000206,1850.8492872000206,1850.8492872000206,1850.8492872000206,1850.8492872000206,1857.2302379000175,['l'],1,[6.374454200005857],[None],1857.2314552000025,1857.2446515000192,1857.2446515000192,1857.2446515000192,1859.1784646000015,2,1.9305099000048358,2,1.9305099000048358,,,,,,hello001,001,2026-02-04_12h12.17.378,recognitionstage,,2025.1.1,59.90186876102675,2026-02-04 12h12.43.841781 +0530,
,,,32,32,0,34,frames\Vid34_BB_T.png,frames\Vid34_L.png,['l'],1,[6.171516300004441],[None],1,2.34905840002466,,,,,0,32,32,33,1859.1962008000119,,25,Male,Left Handed,Normal,,,,,,,,,,,,,,,,,,,,,,,,,,,,,,,,,,,,,,,,1859.1882543000102,1859.1962008000119,1859.1962008000119,1859.1962008000119,1859.1962008000119,1859.1962008000119,1859.1962008000119,1865.3787160000065,['l'],1,[6.171516300004441],[None],1865.3794073000026,1865.3943216000043,1865.3943216000043,1865.3943216000043,1867.7450249000103,1,2.34905840002466,1,2.34905840002466,,,,,,hello001,001,2026-02-04_12h12.17.378,recognitionstage,,2025.1.1,59.90186876102675,2026-02-04 12h12.43.841781 +0530,
,,,33,33,0,29,frames\Vid29_BB_T.png,frames\Vid29_L.png,['l'],1,[4.052843599987682],[None],4,1.964471900020726,,,,,0,33,33,28,1867.7627114000206,,25,Male,Left Handed,Normal,,,,,,,,,,,,,,,,,,,,,,,,,,,,,,,,,,,,,,,,1867.75513830001,1867.7627114000206,1867.7627114000206,1867.7627114000206,1867.7627114000206,1867.7627114000206,1867.7627114000206,1871.829916799994,['l'],1,[4.052843599987682],[None],1871.83088590001,1871.8446823999984,1871.8446823999984,1871.8446823999984,1873.8116713000054,4,1.964471900020726,4,1.964471900020726,,,,,,hello001,001,2026-02-04_12h12.17.378,recognitionstage,,2025.1.1,59.90186876102675,2026-02-04 12h12.43.841781 +0530,
,,,34,34,0,37,frames\Vid37_BB_T.png,frames\Vid37_L.png,['l'],1,[2.283323700015899],[None],5,2.28058510000119,,,,,0,34,34,36,1873.8442533000198,,25,Male,Left Handed,Normal,,,,,,,,,,,,,,,,,,,,,,,,,,,,,,,,,,,,,,,,1873.8226692000171,1873.8442533000198,1873.8442533000198,1873.8442533000198,1873.8442533000198,1873.8442533000198,1873.8442533000198,1876.1304204000044,['l'],1,[2.283323700015899],[None],1876.1314044000173,1876.1439949000196,1876.1439949000196,1876.1439949000196,1878.429031800013,5,2.28058510000119,5,2.28058510000119,,,,,,hello001,001,2026-02-04_12h12.17.378,recognitionstage,,2025.1.1,59.90186876102675,2026-02-04 12h12.43.841781 +0530,
,,,35,35,0,3,frames\Vid3_BB_T.png,frames\Vid3_L.png,['l'],1,[2.4807656000193674],[None],5,1.7490094999957364,,,,,0,35,35,2,1878.4785796999931,,25,Male,Left Handed,Normal,,,,,,,,,,,,,,,,,,,,,,,,,,,,,,,,,,,,,,,,1878.4684433999937,1878.4785796999931,1878.4785796999931,1878.4785796999931,1878.4785796999931,1878.4785796999931,1878.4785796999931,1880.9624571000168,['l'],1,[2.4807656000193674],[None],1880.96307540001,1880.9774083000084,1880.9774083000084,1880.9774083000084,1882.729100800003,5,1.7490094999957364,5,1.7490094999957364,,,,,,hello001,001,2026-02-04_12h12.17.378,recognitionstage,,2025.1.1,59.90186876102675,2026-02-04 12h12.43.841781 +0530,
,,,36,36,0,26,frames\Vid26_EM_T.png,frames\Vid26_L.png,['l'],1,[2.4843889999901876],[None],5,2.016007400001399,,,,,0,36,36,25,1882.7634264999942,,25,Male,Left Handed,Normal,,,,,,,,,,,,,,,,,,,,,,,,,,,,,,,,,,,,,,,,1882.745704400004,1882.7634264999942,1882.7634264999942,1882.7634264999942,1882.7634264999942,1882.7634264999942,1882.7634264999942,1885.2628845,['l'],1,[2.4843889999901876],[None],1885.2638938000018,1885.2780577999947,1885.2780577999947,1885.2780577999947,1887.2950681000075,5,2.016007400001399,5,2.016007400001399,,,,,,hello001,001,2026-02-04_12h12.17.378,recognitionstage,,2025.1.1,59.90186876102675,2026-02-04 12h12.43.841781 +0530,
,,,37,37,0,2,frames\Vid2_BB_T.png,frames\Vid2_L.png,['l'],1,[8.422517800005153],[None],5,1.8990223000000697,,,,,0,37,37,1,1887.3450384000025,,25,Male,Left Handed,Normal,,,,,,,,,,,,,,,,,,,,,,,,,,,,,,,,,,,,,,,,1887.3343494000146,1887.3450384000025,1887.3450384000025,1887.3450384000025,1887.3450384000025,1887.3450384000025,1887.3450384000025,1895.7793329000124,['l'],1,[8.422517800005153],[None],1895.7802446999995,1895.794360800006,1895.794360800006,1895.794360800006,1897.6949164000107,5,1.8990223000000697,5,1.8990223000000697,,,,,,hello001,001,2026-02-04_12h12.17.378,recognitionstage,,2025.1.1,59.90186876102675,2026-02-04 12h12.43.841781 +0530,
,,,38,38,0,27,frames\Vid27_BB_T.png,frames\Vid27_L.png,['r'],1,[6.395960299996659],[None],4,1.931320899981074,,,,,0,38,38,26,1897.715711900004,,25,Male,Left Handed,Normal,,,,,,,,,,,,,,,,,,,,,,,,,,,,,,,,,,,,,,,,1897.7041250000184,1897.715711900004,1897.715711900004,1897.715711900004,1897.715711900004,1897.715711900004,1897.715711900004,1904.1132887999993,['r'],1,[6.395960299996659],[None],1904.1144102000108,1904.1279193999944,1904.1279193999944,1904.1279193999944,1906.0619805000024,4,1.931320899981074,4,1.931320899981074,,,,,,hello001,001,2026-02-04_12h12.17.378,recognitionstage,,2025.1.1,59.90186876102675,2026-02-04 12h12.43.841781 +0530,
,,,39,39,0,32,frames\Vid32_EM_T.png,frames\Vid32_L.png,['l'],1,[1.9854659000120591],[None],5,1.4803169000078924,,,,,0,39,39,31,1906.0941129999992,,25,Male,Left Handed,Normal,,,,,,,,,,,,,,,,,,,,,,,,,,,,,,,,,,,,,,,,1906.0745398,1906.0941129999992,1906.0941129999992,1906.0941129999992,1906.0941129999992,1906.0941129999992,1906.0941129999992,1908.0807573999919,['l'],1,[1.9854659000120591],[None],1908.081734700012,1908.0940257000038,1908.0940257000038,1908.0940257000038,1909.5787728000141,5,1.4803169000078924,5,1.4803169000078924,,,,,,hello001,001,2026-02-04_12h12.17.378,recognitionstage,,2025.1.1,59.90186876102675,2026-02-04 12h12.43.841781 +0530,
,,,,,,,,,,,,,,,,,,,,,,,,,25,Male,Left Handed,Normal,,,,,,,,,,,,,,,,,,,,,,,,,,,,,,,,,,,,,,,,,,,,,,,,,,,,,,,,,,,,,1909.5788985000108,1909.5946003000136,1909.5946003000136,1929.5808263999934,None,hello001,001,2026-02-04_12h12.17.378,recognitionstage,,2025.1.1,59.90186876102675,2026-02-04 12h12.43.841781 +0530,
