path,duration,is_repeat,thisN,thisTrialN,thisRepN,movie_id,target_img,lure_img,resp.keys,resp.corr,resp.rt,resp.duration,conf_radio.response,conf_radio.rt,movie.thisRepN,movie.thisTrialN,movie.thisN,movie.thisIndex,recogloop.thisRepN,recogloop.thisTrialN,recogloop.thisN,recogloop.thisIndex,thisRow.t,notes,age,gender,handedness,vision,caffeine_2h,alcohol_smoke_12h,demographics.started,demographics.stopped,Instructions.started,text1.started,key_resp.started,Instructions.stopped,key_resp.keys,key_resp.rt,key_resp.duration,instruction_2.started,text2.started,key_resp_2.started,instruction_2.stopped,key_resp_2.keys,key_resp_2.rt,key_resp_2.duration,Videos.started,movie_2.started,vigilance_resp.started,movie_2.stopped,Videos.stopped,movie.vigilance_resp.keys,vigilance_pressed,vigilance_correct,ISI.started,text.started,ISI.stopped,text.stopped,movie.vigilance_resp.rt,movie.vigilance_resp.duration,recognition.started,text_4.started,key_resp_3.started,recognition.stopped,key_resp_3.keys,key_resp_3.rt,key_resp_3.duration,recognition_task.started,leftimage.started,rightimage.started,resp.started,frames_question.started,right_label.started,left_label.started,recognition_task.stopped,recogloop.resp.keys,recogloop.resp.corr,recogloop.resp.rt,recogloop.resp.duration,confidence.started,conf_text.started,conf_radio.started,conf_label.started,confidence.stopped,recogloop.conf_radio.response,recogloop.conf_radio.rt,confidence,confidence_rt,thank_you.started,text_6.started,key_resp_4.started,thank_you.stopped,key_resp_4.keys,key_resp_4.rt,key_resp_4.duration,participant,session,date,expName,expVersion,psychopyVersion,frameRate,expStart,...105
,,,,,,,,,,,,,,,,,,,,,,,,,23,Female,Right handed,Normal,Caffeine consumed in last 2 hours?,Alcohol or smoking in last 12 hours?,0.016540400043595582,0.019046600034926087,,,,,,,,,,,,,,,,,,,,,,,,,,,,,,,,,,,,,,,,,,,,,,,,,,,,,,,,,,,,,,,,sub104_AB,001,2026-01-31_10h32.26.038,recognitionstage,,2025.1.1,59.959012007435355,2026-01-31 10h33.13.072322 +0530,
,,,,,,,,,,,,,,,,,,,,,,,,,23,Female,Right handed,Normal,,,,,0.019068600027821958,0.03569809999316931,0.03569809999316931,6.5385311000281945,space,6.486711999983527,None,,,,,,,,,,,,,,,,,,,,,,,,,,,,,,,,,,,,,,,,,,,,,,,,,,,,,,,,,sub104_AB,001,2026-01-31_10h32.26.038,recognitionstage,,2025.1.1,59.959012007435355,2026-01-31 10h33.13.072322 +0530,
,,,,,,,,,,,,,,,,,,,,,,,,,23,Female,Right handed,Normal,,,,,,,,,,,,6.538607000024058,6.552503300015815,6.552503300015815,19.23806090001017,space,12.681383799994364,None,,,,,,,,,,,,,,,,,,,,,,,,,,,,,,,,,,,,,,,,,,,,,,,,,,sub104_AB,001,2026-01-31_10h32.26.038,recognitionstage,,2025.1.1,59.959012007435355,2026-01-31 10h33.13.072322 +0530,
abrupt_videos\abrupt_18.mp4,24,1,44,44,0,,,,,,,,,,0,44,44,20,,,,,1557.1688737000222,,23,Female,Right handed,Normal,,,,,,,,,,,,,,,,,,,1557.1213853000081,1557.1688737000222,1557.1688737000222,1582.0683016999974,1581.9229007000104,None,0,0,1582.0576337000239,1582.0683016999974,1584.555073400028,1584.5709737000288,6.992395499954,None,1584.5551648000255,1584.5709737000288,1584.5709737000288,1619.9706941000186,space,35.38371739996364,None,,,,,,,,,,,,,,,,,,,,,,,,,,,,,sub104_AB,001,2026-01-31_10h32.26.038,recognitionstage,,2025.1.1,59.959012007435355,2026-01-31 10h33.13.072322 +0530,
,,,0,0,0,5,frames\Vid5_EM_T.png,frames\Vid5_L.png,['r'],0,[8.176191400038078],[None],3,10.31519130000379,,,,,0,0,0,4,1620.0177180000464,,23,Female,Right handed,Normal,,,,,,,,,,,,,,,,,,,,,,,,,,,,,,,,,,,,,,,,1620.009784599999,1620.0177180000464,1620.0177180000464,1620.0177180000464,1620.0177180000464,1620.0177180000464,1620.0177180000464,1628.2038145000115,['r'],0,[8.176191400038078],[None],1628.2045851000003,1628.2186536000227,1628.2186536000227,1628.2186536000227,1638.5371202999959,3,10.31519130000379,3,10.31519130000379,,,,,,,,sub104_AB,001,2026-01-31_10h32.26.038,recognitionstage,,2025.1.1,59.959012007435355,2026-01-31 10h33.13.072322 +0530,
,,,1,1,0,25,frames\Vid25_BB_T.png,frames\Vid25_L.png,['r'],1,[5.8586871000006795],[None],4,4.997784799954388,,,,,0,1,1,24,1638.5673947000178,,23,Female,Right handed,Normal,,,,,,,,,,,,,,,,,,,,,,,,,,,,,,,,,,,,,,,,1638.5629790000385,1638.5673947000178,1638.5673947000178,1638.5673947000178,1638.5673947000178,1638.5673947000178,1638.5673947000178,1644.4376765000052,['r'],1,[5.8586871000006795],[None],1644.4386273000273,1644.452439900022,1644.452439900022,1644.452439900022,1649.453328100033,4,4.997784799954388,4,4.997784799954388,,,,,,,,sub104_AB,001,2026-01-31_10h32.26.038,recognitionstage,,2025.1.1,59.959012007435355,2026-01-31 10h33.13.072322 +0530,
,,,2,2,0,2,frames\Vid2_BB_T.png,frames\Vid2_L.png,['r'],0,[2.9714998999843374],[None],5,2.964539300010074,,,,,0,2,2,1,1649.5024491000222,,23,Female,Right handed,Normal,,,,,,,,,,,,,,,,,,,,,,,,,,,,,,,,,,,,,,,,1649.4939990999992,1649.5024491000222,1649.5024491000222,1649.5024491000222,1649.5024491000222,1649.5024491000222,1649.5024491000222,1652.4877399000106,['r'],0,[2.9714998999843374],[None],1652.4888436000329,1652.5020273000118,1652.5020273000118,1652.5020273000118,1655.4692860000068,5,2.964539300010074,5,2.964539300010074,,,,,,,,sub104_AB,001,2026-01-31_10h32.26.038,recognitionstage,,2025.1.1,59.959012007435355,2026-01-31 10h33.13.072322 +0530,
,,,3,3,0,22,frames\Vid22_EM_T.png,frames\Vid22_L.png,['l'],1,[7.120879299996886],[None],5,2.715017299982719,,,,,0,3,3,21,1655.5050719000283,,23,Female,Right handed,Normal,,,,,,,,,,,,,,,,,,,,,,,,,,,,,,,,,,,,,,,,1655.482380100002,1655.5050719000283,1655.5050719000283,1655.5050719000283,1655.5050719000283,1655.5050719000283,1655.5050719000283,1662.6372296000482,['l'],1,[7.120879299996886],[None],1662.638334600022,1662.6528602000326,1662.6528602000326,1662.6528602000326,1665.3695831000223,5,2.715017299982719,5,2.715017299982719,,,,,,,,sub104_AB,001,2026-01-31_10h32.26.038,recognitionstage,,2025.1.1,59.959012007435355,2026-01-31 10h33.13.072322 +0530,
,,,4,4,0,23,frames\Vid23_EM_T.png,frames\Vid23_L.png,['l'],1,[5.599877499975264],[None],2,3.1985822000424378,,,,,0,4,4,22,1665.4022205999936,,23,Female,Right handed,Normal,,,,,,,,,,,,,,,,,,,,,,,,,,,,,,,,,,,,,,,,1665.385112399992,1665.4022205999936,1665.4022205999936,1665.4022205999936,1665.4022205999936,1665.4022205999936,1665.4022205999936,1671.0035797000164,['l'],1,[5.599877499975264],[None],1671.0043829000206,1671.0193456000416,1671.0193456000416,1671.0193456000416,1674.2202751000295,2,3.1985822000424378,2,3.1985822000424378,,,,,,,,sub104_AB,001,2026-01-31_10h32.26.038,recognitionstage,,2025.1.1,59.959012007435355,2026-01-31 10h33.13.072322 +0530,
,,,5,5,0,1,frames\Vid1_EM_T.png,frames\Vid1_L.png,['l'],1,[16.99605860002339],[None],4,2.3655753000057302,,,,,0,5,5,0,1674.2860367000103,,23,Female,Right handed,Normal,,,,,,,,,,,,,,,,,,,,,,,,,,,,,,,,,,,,,,,,1674.267300300009,1674.2860367000103,1674.2860367000103,1674.2860367000103,1674.2860367000103,1674.2860367000103,1674.2860367000103,1691.2871809999924,['l'],1,[16.99605860002339],[None],1691.2880753999925,1691.3024117000168,1691.3024117000168,1691.3024117000168,1693.6695706000319,4,2.3655753000057302,4,2.3655753000057302,,,,,,,,sub104_AB,001,2026-01-31_10h32.26.038,recognitionstage,,2025.1.1,59.959012007435355,2026-01-31 10h33.13.072322 +0530,
,,,6,6,0,28,frames\Vid28_EM_T.png,frames\Vid28_L.png,['r'],1,[5.767769000027329],[None],4,5.064905700040981,,,,,0,6,6,27,1693.6902090000222,,23,Female,Right handed,Normal,,,,,,,,,,,,,,,,,,,,,,,,,,,,,,,,,,,,,,,,1693.678966400039,1693.6902090000222,1693.6902090000222,1693.6902090000222,1693.6902090000222,1693.6902090000222,1693.6902090000222,1699.4710029000416,['r'],1,[5.767769000027329],[None],1699.4718742000405,1699.4853335000225,1699.4853335000225,1699.4853335000225,1704.5530855000252,4,5.064905700040981,4,5.064905700040981,,,,,,,,sub104_AB,001,2026-01-31_10h32.26.038,recognitionstage,,2025.1.1,59.959012007435355,2026-01-31 10h33.13.072322 +0530,
,,,7,7,0,19,frames\Vid19_BB_T.png,frames\Vid19_L.png,['l'],0,[5.521053100004792],[None],5,1.8635669000213966,,,,,0,7,7,18,1704.585292600037,,23,Female,Right handed,Normal,,,,,,,,,,,,,,,,,,,,,,,,,,,,,,,,,,,,,,,,1704.5645810000133,1704.585292600037,1704.585292600037,1704.585292600037,1704.585292600037,1704.585292600037,1704.585292600037,1710.1214978999924,['l'],0,[5.521053100004792],[None],1710.1228735000477,1710.1358776999987,1710.1358776999987,1710.1358776999987,1712.003610100015,5,1.8635669000213966,5,1.8635669000213966,,,,,,,,sub104_AB,001,2026-01-31_10h32.26.038,recognitionstage,,2025.1.1,59.959012007435355,2026-01-31 10h33.13.072322 +0530,
,,,8,8,0,18,frames\Vid18_EM_T.png,frames\Vid18_L.png,['r'],1,[4.0541486000292934],[None],3,2.233497000008356,,,,,0,8,8,17,1712.0357334000291,,23,Female,Right handed,Normal,,,,,,,,,,,,,,,,,,,,,,,,,,,,,,,,,,,,,,,,1712.0152179000434,1712.0357334000291,1712.0357334000291,1712.0357334000291,1712.0357334000291,1712.0357334000291,1712.0357334000291,1716.1027437000303,['r'],1,[4.0541486000292934],[None],1716.103259399999,1716.1191980000003,1716.1191980000003,1716.1191980000003,1718.3535009000334,3,2.233497000008356,3,2.233497000008356,,,,,,,,sub104_AB,001,2026-01-31_10h32.26.038,recognitionstage,,2025.1.1,59.959012007435355,2026-01-31 10h33.13.072322 +0530,
,,,9,9,0,37,frames\Vid37_BB_T.png,frames\Vid37_L.png,['l'],1,[4.896480800001882],[None],5,3.4136988999671303,,,,,0,9,9,36,1718.3857074000407,,23,Female,Right handed,Normal,,,,,,,,,,,,,,,,,,,,,,,,,,,,,,,,,,,,,,,,1718.365494000027,1718.3857074000407,1718.3857074000407,1718.3857074000407,1718.3857074000407,1718.3857074000407,1718.3857074000407,1723.2888204000192,['l'],1,[4.896480800001882],[None],1723.2901555999997,1723.3175424000365,1723.3175424000365,1723.3175424000365,1726.719748500036,5,3.4136988999671303,5,3.4136988999671303,,,,,,,,sub104_AB,001,2026-01-31_10h32.26.038,recognitionstage,,2025.1.1,59.959012007435355,2026-01-31 10h33.13.072322 +0530,
,,,10,10,0,11,frames\Vid11_EM_T.png,frames\Vid11_L.png,['l'],1,[6.168662099982612],[None],3,3.130502299987711,,,,,0,10,10,10,1726.769377699995,,23,Female,Right handed,Normal,,,,,,,,,,,,,,,,,,,,,,,,,,,,,,,,,,,,,,,,1726.7617661000113,1726.769377699995,1726.769377699995,1726.769377699995,1726.769377699995,1726.769377699995,1726.769377699995,1732.95474190003,['l'],1,[6.168662099982612],[None],1732.956246900023,1732.9688050000113,1732.9688050000113,1732.9688050000113,1736.1025217000279,3,3.130502299987711,3,3.130502299987711,,,,,,,,sub104_AB,001,2026-01-31_10h32.26.038,recognitionstage,,2025.1.1,59.959012007435355,2026-01-31 10h33.13.072322 +0530,
,,,11,11,0,13,frames\Vid13_BB_T.png,frames\Vid13_L.png,['l'],0,[7.415192699991167],[None],2,3.4473767000017688,,,,,0,11,11,12,1736.1549281000043,,23,Female,Right handed,Normal,,,,,,,,,,,,,,,,,,,,,,,,,,,,,,,,,,,,,,,,1736.1379725000006,1736.1549281000043,1736.1549281000043,1736.1549281000043,1736.1549281000043,1736.1549281000043,1736.1549281000043,1743.5720178000047,['l'],0,[7.415192699991167],[None],1743.5732598000322,1743.6002807000186,1743.6002807000186,1743.6002807000186,1747.0360416000476,2,3.4473767000017688,2,3.4473767000017688,,,,,,,,sub104_AB,001,2026-01-31_10h32.26.038,recognitionstage,,2025.1.1,59.959012007435355,2026-01-31 10h33.13.072322 +0530,
,,,12,12,0,21,frames\Vid21_BB_T.png,frames\Vid21_L.png,['l'],0,[11.08277849998558],[None],3,1.4470887999632396,,,,,0,12,12,20,1747.0712763000047,,23,Female,Right handed,Normal,,,,,,,,,,,,,,,,,,,,,,,,,,,,,,,,,,,,,,,,1747.0483488000464,1747.0712763000047,1747.0712763000047,1747.0712763000047,1747.0712763000047,1747.0712763000047,1747.0712763000047,1758.1551545000402,['l'],0,[11.08277849998558],[None],1758.15626290004,1758.184101700026,1758.184101700026,1758.184101700026,1759.6191724000382,3,1.4470887999632396,3,1.4470887999632396,,,,,,,,sub104_AB,001,2026-01-31_10h32.26.038,recognitionstage,,2025.1.1,59.959012007435355,2026-01-31 10h33.13.072322 +0530,
,,,13,13,0,17,frames\Vid17_BB_T.png,frames\Vid17_L.png,['r'],1,[4.621923499973491],[None],4,1.3970026000170037,,,,,0,13,13,16,1759.6526207000134,,23,Female,Right handed,Normal,,,,,,,,,,,,,,,,,,,,,,,,,,,,,,,,,,,,,,,,1759.6423778000171,1759.6526207000134,1759.6526207000134,1759.6526207000134,1759.6526207000134,1759.6526207000134,1759.6526207000134,1764.2879304999951,['r'],1,[4.621923499973491],[None],1764.2893074000021,1764.302539700002,1764.302539700002,1764.302539700002,1765.7032935000025,4,1.3970026000170037,4,1.3970026000170037,,,,,,,,sub104_AB,001,2026-01-31_10h32.26.038,recognitionstage,,2025.1.1,59.959012007435355,2026-01-31 10h33.13.072322 +0530,
,,,14,14,0,27,frames\Vid27_BB_T.png,frames\Vid27_L.png,['l'],1,[5.752195000008214],[None],3,3.3147252000053413,,,,,0,14,14,26,1765.7218372999923,,23,Female,Right handed,Normal,,,,,,,,,,,,,,,,,,,,,,,,,,,,,,,,,,,,,,,,1765.7121679999982,1765.7218372999923,1765.7218372999923,1765.7218372999923,1765.7218372999923,1765.7218372999923,1765.7218372999923,1771.4877019000123,['l'],1,[5.752195000008214],[None],1771.488697600027,1771.50239660003,1771.50239660003,1771.50239660003,1774.819130400021,3,3.3147252000053413,3,3.3147252000053413,,,,,,,,sub104_AB,001,2026-01-31_10h32.26.038,recognitionstage,,2025.1.1,59.959012007435355,2026-01-31 10h33.13.072322 +0530,
,,,15,15,0,6,frames\Vid6_BB_T.png,frames\Vid6_L.png,['r'],1,[4.4531190999550745],[None],5,1.7295845999615267,,,,,0,15,15,5,1774.8692117000464,,23,Female,Right handed,Normal,,,,,,,,,,,,,,,,,,,,,,,,,,,,,,,,,,,,,,,,1774.8621086000348,1774.8692117000464,1774.8692117000464,1774.8692117000464,1774.8692117000464,1774.8692117000464,1774.8692117000464,1779.3387479000376,['r'],1,[4.4531190999550745],[None],1779.3404028000077,1779.3670083000325,1779.3670083000325,1779.3670083000325,1781.0862267000484,5,1.7295845999615267,5,1.7295845999615267,,,,,,,,sub104_AB,001,2026-01-31_10h32.26.038,recognitionstage,,2025.1.1,59.959012007435355,2026-01-31 10h33.13.072322 +0530,
,,,16,16,0,30,frames\Vid30_EM_T.png,frames\Vid30_L.png,['l'],1,[6.119021099992096],[None],2,1.816209600016009,,,,,0,16,16,29,1781.1069763000123,,23,Female,Right handed,Normal,,,,,,,,,,,,,,,,,,,,,,,,,,,,,,,,,,,,,,,,1781.0956182000227,1781.1069763000123,1781.1069763000123,1781.1069763000123,1781.1069763000123,1781.1069763000123,1781.1069763000123,1787.2366847000085,['l'],1,[6.119021099992096],[None],1787.2375449000392,1787.2524068000494,1787.2524068000494,1787.2524068000494,1789.069623599993,2,1.816209600016009,2,1.816209600016009,,,,,,,,sub104_AB,001,2026-01-31_10h32.26.038,recognitionstage,,2025.1.1,59.959012007435355,2026-01-31 10h33.13.072322 +0530,
,,,17,17,0,39,frames\Vid39_BB_T.png,frames\Vid39_L.png,['r'],1,[6.11464560002787],[None],2,1.482042299991008,,,,,0,17,17,38,1789.0874729999923,,23,Female,Right handed,Normal,,,,,,,,,,,,,,,,,,,,,,,,,,,,,,,,,,,,,,,,1789.0777743000071,1789.0874729999923,1789.0874729999923,1789.0874729999923,1789.0874729999923,1789.0874729999923,1789.0874729999923,1795.2039904000121,['r'],1,[6.11464560002787],[None],1795.2046308999998,1795.2191150000435,1795.2191150000435,1795.2191150000435,1796.7025600000052,2,1.482042299991008,2,1.482042299991008,,,,,,,,sub104_AB,001,2026-01-31_10h32.26.038,recognitionstage,,2025.1.1,59.959012007435355,2026-01-31 10h33.13.072322 +0530,
,,,18,18,0,8,frames\Vid8_BB_T.png,frames\Vid8_L.png,['l'],1,[4.497475899988785],[None],5,1.3819532000343315,,,,,0,18,18,7,1796.7525622000103,,23,Female,Right handed,Normal,,,,,,,,,,,,,,,,,,,,,,,,,,,,,,,,,,,,,,,,1796.7391060999944,1796.7525622000103,1796.7525622000103,1796.7525622000103,1796.7525622000103,1796.7525622000103,1796.7525622000103,1801.2538058999926,['l'],1,[4.497475899988785],[None],1801.254765700025,1801.2691221000277,1801.2691221000277,1801.2691221000277,1802.6531189000234,5,1.3819532000343315,5,1.3819532000343315,,,,,,,,sub104_AB,001,2026-01-31_10h32.26.038,recognitionstage,,2025.1.1,59.959012007435355,2026-01-31 10h33.13.072322 +0530,
,,,19,19,0,16,frames\Vid16_EM_T.png,frames\Vid16_L.png,['r'],1,[3.7524843999999575],[None],4,1.1314883999875747,,,,,0,19,19,15,1802.7054734000121,,23,Female,Right handed,Normal,,,,,,,,,,,,,,,,,,,,,,,,,,,,,,,,,,,,,,,,1802.6921027000062,1802.7054734000121,1802.7054734000121,1802.7054734000121,1802.7054734000121,1802.7054734000121,1802.7054734000121,1806.470548400015,['r'],1,[3.7524843999999575],[None],1806.4714923000429,1806.4858969000052,1806.4858969000052,1806.4858969000052,1807.619555900048,4,1.1314883999875747,4,1.1314883999875747,,,,,,,,sub104_AB,001,2026-01-31_10h32.26.038,recognitionstage,,2025.1.1,59.959012007435355,2026-01-31 10h33.13.072322 +0530,
,,,20,20,0,24,frames\Vid24_BB_T.png,frames\Vid24_L.png,['l'],1,[5.490930699976161],[None],4,1.1496555999619886,,,,,0,20,20,23,1807.6550979000167,,23,Female,Right handed,Normal,,,,,,,,,,,,,,,,,,,,,,,,,,,,,,,,,,,,,,,,1807.6315245000296,1807.6550979000167,1807.6550979000167,1807.6550979000167,1807.6550979000167,1807.6550979000167,1807.6550979000167,1813.1531143000466,['l'],1,[5.490930699976161],[None],1813.153809600044,1813.1693118000403,1813.1693118000403,1813.1693118000403,1814.319503000006,4,1.1496555999619886,4,1.1496555999619886,,,,,,,,sub104_AB,001,2026-01-31_10h32.26.038,recognitionstage,,2025.1.1,59.959012007435355,2026-01-31 10h33.13.072322 +0530,
,,,21,21,0,7,frames\Vid7_EM_T.png,frames\Vid7_L.png,['l'],1,[4.976318400003947],[None],4,1.4658234000089578,,,,,0,21,21,6,1814.3697216000292,,23,Female,Right handed,Normal,,,,,,,,,,,,,,,,,,,,,,,,,,,,,,,,,,,,,,,,1814.3615693000029,1814.3697216000292,1814.3697216000292,1814.3697216000292,1814.3697216000292,1814.3697216000292,1814.3697216000292,1819.3535045000026,['l'],1,[4.976318400003947],[None],1819.3540251000086,1819.3692254000343,1819.3692254000343,1819.3692254000343,1820.8359763000044,4,1.4658234000089578,4,1.4658234000089578,,,,,,,,sub104_AB,001,2026-01-31_10h32.26.038,recognitionstage,,2025.1.1,59.959012007435355,2026-01-31 10h33.13.072322 +0530,
,,,22,22,0,34,frames\Vid34_BB_T.png,frames\Vid34_L.png,['r'],0,[6.17725230002543],[None],4,3.2818857000092976,,,,,0,22,22,33,1820.8567643000279,,23,Female,Right handed,Normal,,,,,,,,,,,,,,,,,,,,,,,,,,,,,,,,,,,,,,,,1820.8455441000406,1820.8567643000279,1820.8567643000279,1820.8567643000279,1820.8567643000279,1820.8567643000279,1820.8567643000279,1827.0376470000483,['r'],0,[6.17725230002543],[None],1827.0384295000113,1827.0527488000225,1827.0527488000225,1827.0527488000225,1830.3361364000011,4,3.2818857000092976,4,3.2818857000092976,,,,,,,,sub104_AB,001,2026-01-31_10h32.26.038,recognitionstage,,2025.1.1,59.959012007435355,2026-01-31 10h33.13.072322 +0530,
,,,23,23,0,4,frames\Vid4_EM_T.png,frames\Vid4_L.png,['l'],0,[8.159306699992158],[None],2,1.7306848000152968,,,,,0,23,23,3,1830.402772100002,,23,Female,Right handed,Normal,,,,,,,,,,,,,,,,,,,,,,,,,,,,,,,,,,,,,,,,1830.380736400024,1830.402772100002,1830.402772100002,1830.402772100002,1830.402772100002,1830.402772100002,1830.402772100002,1838.5711456999998,['l'],0,[8.159306699992158],[None],1838.5723685999983,1838.5858931000112,1838.5858931000112,1838.5858931000112,1840.320286400034,2,1.7306848000152968,2,1.7306848000152968,,,,,,,,sub104_AB,001,2026-01-31_10h32.26.038,recognitionstage,,2025.1.1,59.959012007435355,2026-01-31 10h33.13.072322 +0530,
,,,24,24,0,26,frames\Vid26_EM_T.png,frames\Vid26_L.png,['l'],1,[6.087102600024082],[None],5,2.5311084000277333,,,,,0,24,24,25,1840.3549844000372,,23,Female,Right handed,Normal,,,,,,,,,,,,,,,,,,,,,,,,,,,,,,,,,,,,,,,,1840.3376010000356,1840.3549844000372,1840.3549844000372,1840.3549844000372,1840.3549844000372,1840.3549844000372,1840.3549844000372,1846.4544924999936,['l'],1,[6.087102600024082],[None],1846.4556149000418,1846.4690531000379,1846.4690531000379,1846.4690531000379,1849.00344650005,5,2.5311084000277333,5,2.5311084000277333,,,,,,,,sub104_AB,001,2026-01-31_10h32.26.038,recognitionstage,,2025.1.1,59.959012007435355,2026-01-31 10h33.13.072322 +0530,
,,,25,25,0,40,frames\Vid40_EM_T.png,frames\Vid40_L.png,['r'],0,[4.589567100047134],[None],4,1.8993241999996826,,,,,0,25,25,39,1849.0206105000107,,23,Female,Right handed,Normal,,,,,,,,,,,,,,,,,,,,,,,,,,,,,,,,,,,,,,,,1849.012347700016,1849.0206105000107,1849.0206105000107,1849.0206105000107,1849.0206105000107,1849.0206105000107,1849.0206105000107,1853.6205424999935,['r'],0,[4.589567100047134],[None],1853.6213624000084,1853.6357605000376,1853.6357605000376,1853.6357605000376,1855.5366168000037,4,1.8993241999996826,4,1.8993241999996826,,,,,,,,sub104_AB,001,2026-01-31_10h32.26.038,recognitionstage,,2025.1.1,59.959012007435355,2026-01-31 10h33.13.072322 +0530,
,,,26,26,0,38,frames\Vid38_EM_T.png,frames\Vid38_L.png,['l'],1,[6.089030899980571],[None],3,1.9160704999812879,,,,,0,26,26,37,1855.568953400012,,23,Female,Right handed,Normal,,,,,,,,,,,,,,,,,,,,,,,,,,,,,,,,,,,,,,,,1855.5489431000315,1855.568953400012,1855.568953400012,1855.568953400012,1855.568953400012,1855.568953400012,1855.568953400012,1861.6700640000054,['l'],1,[6.089030899980571],[None],1861.6709250000422,1861.6860254000057,1861.6860254000057,1861.6860254000057,1863.6033445000066,3,1.9160704999812879,3,1.9160704999812879,,,,,,,,sub104_AB,001,2026-01-31_10h32.26.038,recognitionstage,,2025.1.1,59.959012007435355,2026-01-31 10h33.13.072322 +0530,
,,,27,27,0,3,frames\Vid3_BB_T.png,frames\Vid3_L.png,['l'],1,[4.9814177000080235],[None],2,0.9635644999798387,,,,,0,27,27,2,1863.6526932000415,,23,Female,Right handed,Normal,,,,,,,,,,,,,,,,,,,,,,,,,,,,,,,,,,,,,,,,1863.6438753000111,1863.6526932000415,1863.6526932000415,1863.6526932000415,1863.6526932000415,1863.6526932000415,1863.6526932000415,1868.6387249000254,['l'],1,[4.9814177000080235],[None],1868.640194400039,1868.667277200031,1868.667277200031,1868.667277200031,1869.619795800012,2,0.9635644999798387,2,0.9635644999798387,,,,,,,,sub104_AB,001,2026-01-31_10h32.26.038,recognitionstage,,2025.1.1,59.959012007435355,2026-01-31 10h33.13.072322 +0530,
,,,28,28,0,20,frames\Vid20_EM_T.png,frames\Vid20_L.png,['r'],1,[3.042542500013951],[None],5,1.5626551000168547,,,,,0,28,28,19,1869.639683699992,,23,Female,Right handed,Normal,,,,,,,,,,,,,,,,,,,,,,,,,,,,,,,,,,,,,,,,1869.626590800006,1869.639683699992,1869.639683699992,1869.639683699992,1869.639683699992,1869.639683699992,1869.639683699992,1872.6890654000454,['r'],1,[3.042542500013951],[None],1872.6905338999932,1872.7175664000097,1872.7175664000097,1872.7175664000097,1874.270376600034,5,1.5626551000168547,5,1.5626551000168547,,,,,,,,sub104_AB,001,2026-01-31_10h32.26.038,recognitionstage,,2025.1.1,59.959012007435355,2026-01-31 10h33.13.072322 +0530,
,,,29,29,0,14,frames\Vid14_BB_T.png,frames\Vid14_L.png,['r'],1,[2.818339499994181],[None],5,1.2131510999752209,,,,,0,29,29,13,1874.3359380000038,,23,Female,Right handed,Normal,,,,,,,,,,,,,,,,,,,,,,,,,,,,,,,,,,,,,,,,1874.3149008000037,1874.3359380000038,1874.3359380000038,1874.3359380000038,1874.3359380000038,1874.3359380000038,1874.3359380000038,1877.155727000034,['r'],1,[2.818339499994181],[None],1877.1570725000347,1877.183785500005,1877.183785500005,1877.183785500005,1878.3865816000034,5,1.2131510999752209,5,1.2131510999752209,,,,,,,,sub104_AB,001,2026-01-31_10h32.26.038,recognitionstage,,2025.1.1,59.959012007435355,2026-01-31 10h33.13.072322 +0530,
,,,30,30,0,35,frames\Vid35_EM_T.png,frames\Vid35_L.png,['l'],1,[4.628665099968202],[None],4,0.9161717999959365,,,,,0,30,30,34,1878.4215227999957,,23,Female,Right handed,Normal,,,,,,,,,,,,,,,,,,,,,,,,,,,,,,,,,,,,,,,,1878.3971306000021,1878.4215227999957,1878.4215227999957,1878.4215227999957,1878.4215227999957,1878.4215227999957,1878.4215227999957,1883.0538191000232,['l'],1,[4.628665099968202],[None],1883.0546981000225,1883.069078200031,1883.069078200031,1883.069078200031,1883.9860343000037,4,0.9161717999959365,4,0.9161717999959365,,,,,,,,sub104_AB,001,2026-01-31_10h32.26.038,recognitionstage,,2025.1.1,59.959012007435355,2026-01-31 10h33.13.072322 +0530,
,,,31,31,0,33,frames\Vid33_BB_T.png,frames\Vid33_L.png,['r'],1,[5.182151000015438],[None],5,1.081865000014659,,,,,0,31,31,32,1884.0042531000217,,23,Female,Right handed,Normal,,,,,,,,,,,,,,,,,,,,,,,,,,,,,,,,,,,,,,,,1883.9950194000266,1884.0042531000217,1884.0042531000217,1884.0042531000217,1884.0042531000217,1884.0042531000217,1884.0042531000217,1889.1874826000421,['r'],1,[5.182151000015438],[None],1889.188314900035,1889.2023944000248,1889.2023944000248,1889.2023944000248,1890.2861253000447,5,1.081865000014659,5,1.081865000014659,,,,,,,,sub104_AB,001,2026-01-31_10h32.26.038,recognitionstage,,2025.1.1,59.959012007435355,2026-01-31 10h33.13.072322 +0530,
,,,32,32,0,36,frames\Vid36_BB_T.png,frames\Vid36_L.png,['r'],0,[6.043537000019569],[None],2,1.3129360000020824,,,,,0,32,32,35,1890.3187285000458,,23,Female,Right handed,Normal,,,,,,,,,,,,,,,,,,,,,,,,,,,,,,,,,,,,,,,,1890.2989730000263,1890.3187285000458,1890.3187285000458,1890.3187285000458,1890.3187285000458,1890.3187285000458,1890.3187285000458,1896.372358600027,['r'],0,[6.043537000019569],[None],1896.3736736000283,1896.4004824000294,1896.4004824000294,1896.4004824000294,1897.7029764000326,2,1.3129360000020824,2,1.3129360000020824,,,,,,,,sub104_AB,001,2026-01-31_10h32.26.038,recognitionstage,,2025.1.1,59.959012007435355,2026-01-31 10h33.13.072322 +0530,
,,,33,33,0,29,frames\Vid29_BB_T.png,frames\Vid29_L.png,['r'],1,[7.762770199973602],[None],2,1.3813483999692835,,,,,0,33,33,28,1897.7355053999927,,23,Female,Right handed,Normal,,,,,,,,,,,,,,,,,,,,,,,,,,,,,,,,,,,,,,,,1897.7157060000463,1897.7355053999927,1897.7355053999927,1897.7355053999927,1897.7355053999927,1897.7355053999927,1897.7355053999927,1905.5044749000226,['r'],1,[7.762770199973602],[None],1905.5058531000395,1905.5190628000419,1905.5190628000419,1905.5190628000419,1906.903115699999,2,1.3813483999692835,2,1.3813483999692835,,,,,,,,sub104_AB,001,2026-01-31_10h32.26.038,recognitionstage,,2025.1.1,59.959012007435355,2026-01-31 10h33.13.072322 +0530,
,,,34,34,0,10,frames\Vid10_BB_T.png,frames\Vid10_L.png,['l'],1,[5.424607799970545],[None],3,1.5478531999979168,,,,,0,34,34,9,1906.9695293999976,,23,Female,Right handed,Normal,,,,,,,,,,,,,,,,,,,,,,,,,,,,,,,,,,,,,,,,1906.9468542000395,1906.9695293999976,1906.9695293999976,1906.9695293999976,1906.9695293999976,1906.9695293999976,1906.9695293999976,1912.404244400037,['l'],1,[5.424607799970545],[None],1912.4058085000142,1912.4338952000253,1912.4338952000253,1912.4338952000253,1913.969691300008,3,1.5478531999979168,3,1.5478531999979168,,,,,,,,sub104_AB,001,2026-01-31_10h32.26.038,recognitionstage,,2025.1.1,59.959012007435355,2026-01-31 10h33.13.072322 +0530,
,,,35,35,0,9,frames\Vid9_EM_T.png,frames\Vid9_L.png,['l'],0,[3.8357918999972753],[None],3,1.1970070999814197,,,,,0,35,35,8,1914.0223245000234,,23,Female,Right handed,Normal,,,,,,,,,,,,,,,,,,,,,,,,,,,,,,,,,,,,,,,,1914.0062520000502,1914.0223245000234,1914.0223245000234,1914.0223245000234,1914.0223245000234,1914.0223245000234,1914.0223245000234,1917.872040300048,['l'],0,[3.8357918999972753],[None],1917.8730966000003,1917.8853041999973,1917.8853041999973,1917.8853041999973,1919.0863339999923,3,1.1970070999814197,3,1.1970070999814197,,,,,,,,sub104_AB,001,2026-01-31_10h32.26.038,recognitionstage,,2025.1.1,59.959012007435355,2026-01-31 10h33.13.072322 +0530,
,,,36,36,0,31,frames\Vid31_EM_T.png,frames\Vid31_L.png,['l'],1,[2.3526198999607004],[None],4,1.79724449996138,,,,,0,36,36,30,1919.1215306000086,,23,Female,Right handed,Normal,,,,,,,,,,,,,,,,,,,,,,,,,,,,,,,,,,,,,,,,1919.09732120001,1919.1215306000086,1919.1215306000086,1919.1215306000086,1919.1215306000086,1919.1215306000086,1919.1215306000086,1921.4885634999955,['l'],1,[2.3526198999607004],[None],1921.4898173999973,1921.5024586000363,1921.5024586000363,1921.5024586000363,1923.3034591000178,4,1.79724449996138,4,1.79724449996138,,,,,,,,sub104_AB,001,2026-01-31_10h32.26.038,recognitionstage,,2025.1.1,59.959012007435355,2026-01-31 10h33.13.072322 +0530,
,,,37,37,0,32,frames\Vid32_EM_T.png,frames\Vid32_L.png,['r'],1,[3.7305627999594435],[None],5,1.1294298999710009,,,,,0,37,37,31,1923.335717000009,,23,Female,Right handed,Normal,,,,,,,,,,,,,,,,,,,,,,,,,,,,,,,,,,,,,,,,1923.3145406999975,1923.335717000009,1923.335717000009,1923.335717000009,1923.335717000009,1923.335717000009,1923.335717000009,1927.0720785000012,['r'],1,[3.7305627999594435],[None],1927.0737225000048,1927.1003364000353,1927.1003364000353,1927.1003364000353,1928.220343700028,5,1.1294298999710009,5,1.1294298999710009,,,,,,,,sub104_AB,001,2026-01-31_10h32.26.038,recognitionstage,,2025.1.1,59.959012007435355,2026-01-31 10h33.13.072322 +0530,
,,,38,38,0,15,frames\Vid15_BB_T.png,frames\Vid15_L.png,['r'],1,[9.659739500028081],[None],2,1.0983010999625549,,,,,0,38,38,14,1928.2864034000086,,23,Female,Right handed,Normal,,,,,,,,,,,,,,,,,,,,,,,,,,,,,,,,,,,,,,,,1928.2692382000387,1928.2864034000086,1928.2864034000086,1928.2864034000086,1928.2864034000086,1928.2864034000086,1928.2864034000086,1937.953937800019,['r'],1,[9.659739500028081],[None],1937.9550226000138,1937.9692497000215,1937.9692497000215,1937.9692497000215,1939.0698644000222,2,1.0983010999625549,2,1.0983010999625549,,,,,,,,sub104_AB,001,2026-01-31_10h32.26.038,recognitionstage,,2025.1.1,59.959012007435355,2026-01-31 10h33.13.072322 +0530,
,,,39,39,0,12,frames\Vid12_EM_T.png,frames\Vid12_L.png,['r'],1,[5.815072600031272],[None],2,1.4308181999949738,,,,,0,39,39,11,1939.1390640000463,,23,Female,Right handed,Normal,,,,,,,,,,,,,,,,,,,,,,,,,,,,,,,,,,,,,,,,1939.1174413000117,1939.1390640000463,1939.1390640000463,1939.1390640000463,1939.1390640000463,1939.1390640000463,1939.1390640000463,1944.955359500018,['r'],1,[5.815072600031272],[None],1944.9563691000221,1944.9688500000047,1944.9688500000047,1944.9688500000047,1946.4032586000394,2,1.4308181999949738,2,1.4308181999949738,,,,,,,,sub104_AB,001,2026-01-31_10h32.26.038,recognitionstage,,2025.1.1,59.959012007435355,2026-01-31 10h33.13.072322 +0530,
,,,,,,,,,,,,,,,,,,,,,,,,,23,Female,Right handed,Normal,,,,,,,,,,,,,,,,,,,,,,,,,,,,,,,,,,,,,,,,,,,,,,,,,,,,,,,,,,,,,1946.4033804000355,1946.419863499992,1946.419863499992,1962.1550475000404,space,15.72635439998703,None,sub104_AB,001,2026-01-31_10h32.26.038,recognitionstage,,2025.1.1,59.959012007435355,2026-01-31 10h33.13.072322 +0530,
