path,duration,is_repeat,thisN,thisTrialN,thisRepN,movie_id,target_img,lure_img,resp.keys,resp.corr,resp.rt,resp.duration,conf_radio.response,conf_radio.rt,movie.thisRepN,movie.thisTrialN,movie.thisN,movie.thisIndex,recogloop.thisRepN,recogloop.thisTrialN,recogloop.thisN,recogloop.thisIndex,thisRow.t,notes,age,gender,handedness,vision,caffeine_2h,alcohol_smoke_12h,demographics.started,demographics.stopped,Instructions.started,text1.started,key_resp.started,Instructions.stopped,key_resp.keys,key_resp.rt,key_resp.duration,instruction_2.started,text2.started,key_resp_2.started,instruction_2.stopped,key_resp_2.keys,key_resp_2.rt,key_resp_2.duration,Videos.started,movie_2.started,vigilance_resp.started,movie_2.stopped,Videos.stopped,movie.vigilance_resp.keys,vigilance_pressed,vigilance_correct,ISI.started,text.started,ISI.stopped,text.stopped,movie.vigilance_resp.rt,movie.vigilance_resp.duration,recognition.started,text_4.started,key_resp_3.started,recognition.stopped,key_resp_3.keys,key_resp_3.rt,key_resp_3.duration,recognition_task.started,leftimage.started,rightimage.started,resp.started,frames_question.started,right_label.started,left_label.started,recognition_task.stopped,recogloop.resp.keys,recogloop.resp.corr,recogloop.resp.rt,recogloop.resp.duration,confidence.started,conf_text.started,conf_radio.started,conf_label.started,confidence.stopped,recogloop.conf_radio.response,recogloop.conf_radio.rt,confidence,confidence_rt,thank_you.started,text_6.started,key_resp_4.started,text_6.stopped,key_resp_4.stopped,thank_you.stopped,key_resp_4.keys,participant,session,date,expName,expVersion,psychopyVersion,frameRate,expStart,...105
,,,,,,,,,,,,,,,,,,,,,,,,,22,Male,Right handed,Normal,Caffeine consumed in last 2 hours?,Alcohol or smoking in last 12 hours?,0.004404100007377565,0.006797000009100884,,,,,,,,,,,,,,,,,,,,,,,,,,,,,,,,,,,,,,,,,,,,,,,,,,,,,,,,,,,,,,,,sub116_AB,001,2026-01-31_19h32.14.994,recognitionstage,,2025.1.1,60.047617752968705,2026-01-31 19h33.16.631851 +0530,
,,,,,,,,,,,,,,,,,,,,,,,,,22,Male,Right handed,Normal,,,,,0.006818200054112822,0.02343300002394244,0.02343300002394244,11.59033100004308,space,11.562582099984866,None,,,,,,,,,,,,,,,,,,,,,,,,,,,,,,,,,,,,,,,,,,,,,,,,,,,,,,,,,sub116_AB,001,2026-01-31_19h32.14.994,recognitionstage,,2025.1.1,60.047617752968705,2026-01-31 19h33.16.631851 +0530,
,,,,,,,,,,,,,,,,,,,,,,,,,22,Male,Right handed,Normal,,,,,,,,,,,,11.590356700005941,11.606538800057024,11.606538800057024,18.459867200057488,space,6.8365734000108205,None,,,,,,,,,,,,,,,,,,,,,,,,,,,,,,,,,,,,,,,,,,,,,,,,,,sub116_AB,001,2026-01-31_19h32.14.994,recognitionstage,,2025.1.1,60.047617752968705,2026-01-31 19h33.16.631851 +0530,
abrupt_videos\abrupt_18.mp4,24,1,44,44,0,,,,,,,,,,0,44,44,19,,,,,1525.9067082000547,,22,Male,Right handed,Normal,,,,,,,,,,,,,,,,,,,1525.8641621000133,1525.9067082000547,1525.9067082000547,1522.6392832000274,1528.5920343000325,space,1,1,1528.6982435000245,1528.7060760000022,1531.1925819000462,1531.2080212000292,2.67184530000668,None,1531.1926579000428,1531.2080212000292,1531.2080212000292,1548.3757149000303,space,17.163041200023144,None,,,,,,,,,,,,,,,,,,,,,,,,,,,,,sub116_AB,001,2026-01-31_19h32.14.994,recognitionstage,,2025.1.1,60.047617752968705,2026-01-31 19h33.16.631851 +0530,
,,,0,0,0,4,frames\Vid4_EM_T.png,frames\Vid4_L.png,['r'],0,[2.5473391000414267],[None],5,6.7323662000126205,,,,,0,0,0,3,1548.4391626000288,,22,Male,Right handed,Normal,,,,,,,,,,,,,,,,,,,,,,,,,,,,,,,,,,,,,,,,1548.427700900007,1548.4391626000288,1548.4391626000288,1548.4391626000288,1548.4391626000288,1548.4391626000288,1548.4391626000288,1550.9917848000186,['r'],0,[2.5473391000414267],[None],1550.9923851000494,1551.0064470000216,1551.0064470000216,1551.0064470000216,1557.7411722000106,5,6.7323662000126205,5,6.7323662000126205,,,,,,,,sub116_AB,001,2026-01-31_19h32.14.994,recognitionstage,,2025.1.1,60.047617752968705,2026-01-31 19h33.16.631851 +0530,
,,,1,1,0,33,frames\Vid33_BB_T.png,frames\Vid33_L.png,['l'],1,[2.9816714000189677],[None],5,1.9810448000207543,,,,,0,1,1,32,1557.7888658000156,,22,Male,Right handed,Normal,,,,,,,,,,,,,,,,,,,,,,,,,,,,,,,,,,,,,,,,1557.771532200044,1557.7888658000156,1557.7888658000156,1557.7888658000156,1557.7888658000156,1557.7888658000156,1557.7888658000156,1560.7759554000222,['l'],1,[2.9816714000189677],[None],1560.7768992000492,1560.7899631000473,1560.7899631000473,1560.7899631000473,1562.774144200026,5,1.9810448000207543,5,1.9810448000207543,,,,,,,,sub116_AB,001,2026-01-31_19h32.14.994,recognitionstage,,2025.1.1,60.047617752968705,2026-01-31 19h33.16.631851 +0530,
,,,2,2,0,30,frames\Vid30_EM_T.png,frames\Vid30_L.png,['r'],0,[3.7145410000230186],[None],3,1.66461320000235,,,,,0,2,2,29,1562.7918069000007,,22,Male,Right handed,Normal,,,,,,,,,,,,,,,,,,,,,,,,,,,,,,,,,,,,,,,,1562.782682500023,1562.7918069000007,1562.7918069000007,1562.7918069000007,1562.7918069000007,1562.7918069000007,1562.7918069000007,1566.509236700018,['r'],0,[3.7145410000230186],[None],1566.5102218000102,1566.523098900041,1566.523098900041,1566.523098900041,1568.1908504000166,3,1.66461320000235,3,1.66461320000235,,,,,,,,sub116_AB,001,2026-01-31_19h32.14.994,recognitionstage,,2025.1.1,60.047617752968705,2026-01-31 19h33.16.631851 +0530,
,,,3,3,0,13,frames\Vid13_BB_T.png,frames\Vid13_L.png,['l'],1,[2.969908299972303],[None],3,2.814865300024394,,,,,0,3,3,12,1568.2404810000444,,22,Male,Right handed,Normal,,,,,,,,,,,,,,,,,,,,,,,,,,,,,,,,,,,,,,,,1568.2247097000363,1568.2404810000444,1568.2404810000444,1568.2404810000444,1568.2404810000444,1568.2404810000444,1568.2404810000444,1571.2254444000428,['l'],1,[2.969908299972303],[None],1571.2259969000006,1571.2399443000322,1571.2399443000322,1571.2399443000322,1574.0577362000477,3,2.814865300024394,3,2.814865300024394,,,,,,,,sub116_AB,001,2026-01-31_19h32.14.994,recognitionstage,,2025.1.1,60.047617752968705,2026-01-31 19h33.16.631851 +0530,
,,,4,4,0,18,frames\Vid18_EM_T.png,frames\Vid18_L.png,['l'],1,[2.685585400031414],[None],2,2.332328899996355,,,,,0,4,4,17,1574.092696800013,,22,Male,Right handed,Normal,,,,,,,,,,,,,,,,,,,,,,,,,,,,,,,,,,,,,,,,1574.0706082000397,1574.092696800013,1574.092696800013,1574.092696800013,1574.092696800013,1574.092696800013,1574.092696800013,1576.7911709000473,['l'],1,[2.685585400031414],[None],1576.7919427000452,1576.8068021000363,1576.8068021000363,1576.8068021000363,1579.1414915000205,2,2.332328899996355,2,2.332328899996355,,,,,,,,sub116_AB,001,2026-01-31_19h32.14.994,recognitionstage,,2025.1.1,60.047617752968705,2026-01-31 19h33.16.631851 +0530,
,,,5,5,0,14,frames\Vid14_BB_T.png,frames\Vid14_L.png,['r'],1,[2.5388827999704517],[None],5,1.297003699990455,,,,,0,5,5,13,1579.2075283000013,,22,Male,Right handed,Normal,,,,,,,,,,,,,,,,,,,,,,,,,,,,,,,,,,,,,,,,1579.1866228000144,1579.2075283000013,1579.2075283000013,1579.2075283000013,1579.2075283000013,1579.2075283000013,1579.2075283000013,1581.7598568000249,['r'],1,[2.5388827999704517],[None],1581.7610472000088,1581.7734026000253,1581.7734026000253,1581.7734026000253,1583.0740319000324,5,1.297003699990455,5,1.297003699990455,,,,,,,,sub116_AB,001,2026-01-31_19h32.14.994,recognitionstage,,2025.1.1,60.047617752968705,2026-01-31 19h33.16.631851 +0530,
,,,6,6,0,31,frames\Vid31_EM_T.png,frames\Vid31_L.png,['r'],1,[2.0120791000081226],[None],5,1.0144460999872535,,,,,0,6,6,30,1583.110526100034,,22,Male,Right handed,Normal,,,,,,,,,,,,,,,,,,,,,,,,,,,,,,,,,,,,,,,,1583.0862282000016,1583.110526100034,1583.110526100034,1583.110526100034,1583.110526100034,1583.110526100034,1583.110526100034,1585.1260057000327,['r'],1,[2.0120791000081226],[None],1585.1271001000423,1585.1397777000093,1585.1397777000093,1585.1397777000093,1586.1580463999999,5,1.0144460999872535,5,1.0144460999872535,,,,,,,,sub116_AB,001,2026-01-31_19h32.14.994,recognitionstage,,2025.1.1,60.047617752968705,2026-01-31 19h33.16.631851 +0530,
,,,7,7,0,39,frames\Vid39_BB_T.png,frames\Vid39_L.png,['r'],0,[1.4682080000056885],[None],5,0.8802511999965645,,,,,0,7,7,38,1586.190331300022,,22,Male,Right handed,Normal,,,,,,,,,,,,,,,,,,,,,,,,,,,,,,,,,,,,,,,,1586.1686257000547,1586.190331300022,1586.190331300022,1586.190331300022,1586.190331300022,1586.190331300022,1586.190331300022,1587.6600560000516,['r'],0,[1.4682080000056885],[None],1587.661484100041,1587.6884667000268,1587.6884667000268,1587.6884667000268,1588.5575871000183,5,0.8802511999965645,5,0.8802511999965645,,,,,,,,sub116_AB,001,2026-01-31_19h32.14.994,recognitionstage,,2025.1.1,60.047617752968705,2026-01-31 19h33.16.631851 +0530,
,,,8,8,0,28,frames\Vid28_EM_T.png,frames\Vid28_L.png,['r'],1,[2.3070690000313334],[None],5,0.9322476999950595,,,,,0,8,8,27,1588.5753239000333,,22,Male,Right handed,Normal,,,,,,,,,,,,,,,,,,,,,,,,,,,,,,,,,,,,,,,,1588.5676511000493,1588.5753239000333,1588.5753239000333,1588.5753239000333,1588.5753239000333,1588.5753239000333,1588.5753239000333,1590.8912254000315,['r'],1,[2.3070690000313334],[None],1590.892031700001,1590.9069823000464,1590.9069823000464,1590.9069823000464,1591.8414247000474,5,0.9322476999950595,5,0.9322476999950595,,,,,,,,sub116_AB,001,2026-01-31_19h32.14.994,recognitionstage,,2025.1.1,60.047617752968705,2026-01-31 19h33.16.631851 +0530,
,,,9,9,0,12,frames\Vid12_EM_T.png,frames\Vid12_L.png,['l'],1,[3.8792486999882385],[None],5,1.4135189999942668,,,,,0,9,9,11,1591.9072678000084,,22,Male,Right handed,Normal,,,,,,,,,,,,,,,,,,,,,,,,,,,,,,,,,,,,,,,,1591.8871458000503,1591.9072678000084,1591.9072678000084,1591.9072678000084,1591.9072678000084,1591.9072678000084,1591.9072678000084,1595.7927150000469,['l'],1,[3.8792486999882385],[None],1595.7943113000365,1595.822004400019,1595.822004400019,1595.822004400019,1597.2237737000105,5,1.4135189999942668,5,1.4135189999942668,,,,,,,,sub116_AB,001,2026-01-31_19h32.14.994,recognitionstage,,2025.1.1,60.047617752968705,2026-01-31 19h33.16.631851 +0530,
,,,10,10,0,27,frames\Vid27_BB_T.png,frames\Vid27_L.png,['r'],1,[4.173318000044674],[None],3,1.6822853999910876,,,,,0,10,10,26,1597.2449715000112,,22,Male,Right handed,Normal,,,,,,,,,,,,,,,,,,,,,,,,,,,,,,,,,,,,,,,,1597.2333191000507,1597.2449715000112,1597.2449715000112,1597.2449715000112,1597.2449715000112,1597.2449715000112,1597.2449715000112,1601.4246130000101,['r'],1,[4.173318000044674],[None],1601.4255049000494,1601.4404902000097,1601.4404902000097,1601.4404902000097,1603.1243524000165,3,1.6822853999910876,3,1.6822853999910876,,,,,,,,sub116_AB,001,2026-01-31_19h32.14.994,recognitionstage,,2025.1.1,60.047617752968705,2026-01-31 19h33.16.631851 +0530,
,,,11,11,0,17,frames\Vid17_BB_T.png,frames\Vid17_L.png,['l'],1,[4.037521800026298],[None],1,0.9811601999681443,,,,,0,11,11,16,1603.156897500041,,22,Male,Right handed,Normal,,,,,,,,,,,,,,,,,,,,,,,,,,,,,,,,,,,,,,,,1603.148962300038,1603.156897500041,1603.156897500041,1603.156897500041,1603.156897500041,1603.156897500041,1603.156897500041,1607.2089032000513,['l'],1,[4.037521800026298],[None],1607.2097759000026,1607.22328440001,1607.22328440001,1607.22328440001,1608.2076454000198,1,0.9811601999681443,1,0.9811601999681443,,,,,,,,sub116_AB,001,2026-01-31_19h32.14.994,recognitionstage,,2025.1.1,60.047617752968705,2026-01-31 19h33.16.631851 +0530,
,,,12,12,0,40,frames\Vid40_EM_T.png,frames\Vid40_L.png,['l'],0,[3.4959941999986768],[None],5,1.1490863999933936,,,,,0,12,12,39,1608.226337900036,,22,Male,Right handed,Normal,,,,,,,,,,,,,,,,,,,,,,,,,,,,,,,,,,,,,,,,1608.214882100001,1608.226337900036,1608.226337900036,1608.226337900036,1608.226337900036,1608.226337900036,1608.226337900036,1611.7247167000314,['l'],0,[3.4959941999986768],[None],1611.7254417000222,1611.7401987000485,1611.7401987000485,1611.7401987000485,1612.8902531000203,5,1.1490863999933936,5,1.1490863999933936,,,,,,,,sub116_AB,001,2026-01-31_19h32.14.994,recognitionstage,,2025.1.1,60.047617752968705,2026-01-31 19h33.16.631851 +0530,
,,,13,13,0,16,frames\Vid16_EM_T.png,frames\Vid16_L.png,['l'],0,[3.0220697000040673],[None],3,2.0975351000088267,,,,,0,13,13,15,1612.940434600052,,22,Male,Right handed,Normal,,,,,,,,,,,,,,,,,,,,,,,,,,,,,,,,,,,,,,,,1612.9290758999996,1612.940434600052,1612.940434600052,1612.940434600052,1612.940434600052,1612.940434600052,1612.940434600052,1615.9755727000302,['l'],0,[3.0220697000040673],[None],1615.97659200005,1615.990137100045,1615.990137100045,1615.990137100045,1618.0912737000035,3,2.0975351000088267,3,2.0975351000088267,,,,,,,,sub116_AB,001,2026-01-31_19h32.14.994,recognitionstage,,2025.1.1,60.047617752968705,2026-01-31 19h33.16.631851 +0530,
,,,14,14,0,37,frames\Vid37_BB_T.png,frames\Vid37_L.png,['l'],1,[2.140386800048873],[None],5,1.1484625000157394,,,,,0,14,14,36,1618.1259946000064,,22,Male,Right handed,Normal,,,,,,,,,,,,,,,,,,,,,,,,,,,,,,,,,,,,,,,,1618.1033182000392,1618.1259946000064,1618.1259946000064,1618.1259946000064,1618.1259946000064,1618.1259946000064,1618.1259946000064,1620.2752697000396,['l'],1,[2.140386800048873],[None],1620.2760640000342,1620.289821000013,1620.289821000013,1620.289821000013,1621.4410349000245,5,1.1484625000157394,5,1.1484625000157394,,,,,,,,sub116_AB,001,2026-01-31_19h32.14.994,recognitionstage,,2025.1.1,60.047617752968705,2026-01-31 19h33.16.631851 +0530,
,,,15,15,0,2,frames\Vid2_BB_T.png,frames\Vid2_L.png,['l'],1,[8.135560200025793],[None],1,1.2812419999972917,,,,,0,15,15,1,1621.4907805000548,,22,Male,Right handed,Normal,,,,,,,,,,,,,,,,,,,,,,,,,,,,,,,,,,,,,,,,1621.4793848000118,1621.4907805000548,1621.4907805000548,1621.4907805000548,1621.4907805000548,1621.4907805000548,1621.4907805000548,1629.6424300000072,['l'],1,[8.135560200025793],[None],1629.6435606000014,1629.656454400043,1629.656454400043,1629.656454400043,1630.9409481000039,1,1.2812419999972917,1,1.2812419999972917,,,,,,,,sub116_AB,001,2026-01-31_19h32.14.994,recognitionstage,,2025.1.1,60.047617752968705,2026-01-31 19h33.16.631851 +0530,
,,,16,16,0,21,frames\Vid21_BB_T.png,frames\Vid21_L.png,['r'],1,[9.122205200023018],[None],5,1.1475862000370398,,,,,0,16,16,20,1630.9763705000514,,22,Male,Right handed,Normal,,,,,,,,,,,,,,,,,,,,,,,,,,,,,,,,,,,,,,,,1630.9521662000334,1630.9763705000514,1630.9763705000514,1630.9763705000514,1630.9763705000514,1630.9763705000514,1630.9763705000514,1640.108773200016,['r'],1,[9.122205200023018],[None],1640.1098598000244,1640.123554000049,1640.123554000049,1640.123554000049,1641.2746920000063,5,1.1475862000370398,5,1.1475862000370398,,,,,,,,sub116_AB,001,2026-01-31_19h32.14.994,recognitionstage,,2025.1.1,60.047617752968705,2026-01-31 19h33.16.631851 +0530,
,,,17,17,0,11,frames\Vid11_EM_T.png,frames\Vid11_L.png,['l'],1,[3.3098250000039116],[None],5,1.1651278999634087,,,,,0,17,17,10,1641.3406268000253,,22,Male,Right handed,Normal,,,,,,,,,,,,,,,,,,,,,,,,,,,,,,,,,,,,,,,,1641.3182774000452,1641.3406268000253,1641.3406268000253,1641.3406268000253,1641.3406268000253,1641.3406268000253,1641.3406268000253,1644.6585195000516,['l'],1,[3.3098250000039116],[None],1644.6593608000549,1644.6731315000216,1644.6731315000216,1644.6731315000216,1645.8409103000304,5,1.1651278999634087,5,1.1651278999634087,,,,,,,,sub116_AB,001,2026-01-31_19h32.14.994,recognitionstage,,2025.1.1,60.047617752968705,2026-01-31 19h33.16.631851 +0530,
,,,18,18,0,9,frames\Vid9_EM_T.png,frames\Vid9_L.png,['r'],1,[4.405708900012542],[None],5,1.0984059000038542,,,,,0,18,18,8,1645.892754200031,,22,Male,Right handed,Normal,,,,,,,,,,,,,,,,,,,,,,,,,,,,,,,,,,,,,,,,1645.8798712000134,1645.892754200031,1645.892754200031,1645.892754200031,1645.892754200031,1645.892754200031,1645.892754200031,1650.3088022000156,['r'],1,[4.405708900012542],[None],1650.309661300038,1650.3233496000175,1650.3233496000175,1650.3233496000175,1651.4242271000403,5,1.0984059000038542,5,1.0984059000038542,,,,,,,,sub116_AB,001,2026-01-31_19h32.14.994,recognitionstage,,2025.1.1,60.047617752968705,2026-01-31 19h33.16.631851 +0530,
,,,19,19,0,6,frames\Vid6_BB_T.png,frames\Vid6_L.png,['l'],1,[3.5654606000171043],[None],4,1.032495099992957,,,,,0,19,19,5,1651.4929762000102,,22,Male,Right handed,Normal,,,,,,,,,,,,,,,,,,,,,,,,,,,,,,,,,,,,,,,,1651.4681318000075,1651.4929762000102,1651.4929762000102,1651.4929762000102,1651.4929762000102,1651.4929762000102,1651.4929762000102,1655.0753148000222,['l'],1,[3.5654606000171043],[None],1655.0761174000218,1655.0898393000243,1655.0898393000243,1655.0898393000243,1656.1237638000166,4,1.032495099992957,4,1.032495099992957,,,,,,,,sub116_AB,001,2026-01-31_19h32.14.994,recognitionstage,,2025.1.1,60.047617752968705,2026-01-31 19h33.16.631851 +0530,
,,,20,20,0,38,frames\Vid38_EM_T.png,frames\Vid38_L.png,['l'],1,[2.753356300003361],[None],5,1.0984138999483548,,,,,0,20,20,37,1656.1451133000082,,22,Male,Right handed,Normal,,,,,,,,,,,,,,,,,,,,,,,,,,,,,,,,,,,,,,,,1656.1324817000423,1656.1451133000082,1656.1451133000082,1656.1451133000082,1656.1451133000082,1656.1451133000082,1656.1451133000082,1658.9087125000078,['l'],1,[2.753356300003361],[None],1658.9096462000161,1658.923121800006,1658.923121800006,1658.923121800006,1660.0241436000215,5,1.0984138999483548,5,1.0984138999483548,,,,,,,,sub116_AB,001,2026-01-31_19h32.14.994,recognitionstage,,2025.1.1,60.047617752968705,2026-01-31 19h33.16.631851 +0530,
,,,21,21,0,1,frames\Vid1_EM_T.png,frames\Vid1_L.png,['l'],1,[5.079746400006115],[None],5,1.3473971000057645,,,,,0,21,21,0,1660.0908644000301,,22,Male,Right handed,Normal,,,,,,,,,,,,,,,,,,,,,,,,,,,,,,,,,,,,,,,,1660.075615800044,1660.0908644000301,1660.0908644000301,1660.0908644000301,1660.0908644000301,1660.0908644000301,1660.0908644000301,1665.175928600016,['l'],1,[5.079746400006115],[None],1665.1768120000488,1665.1897688000463,1665.1897688000463,1665.1897688000463,1666.5405208000448,5,1.3473971000057645,5,1.3473971000057645,,,,,,,,sub116_AB,001,2026-01-31_19h32.14.994,recognitionstage,,2025.1.1,60.047617752968705,2026-01-31 19h33.16.631851 +0530,
,,,22,22,0,25,frames\Vid25_BB_T.png,frames\Vid25_L.png,['l'],0,[1.7372255999944173],[None],5,0.46282800001790747,,,,,0,22,22,24,1666.5613799000275,,22,Male,Right handed,Normal,,,,,,,,,,,,,,,,,,,,,,,,,,,,,,,,,,,,,,,,1666.5504388000118,1666.5613799000275,1666.5613799000275,1666.5613799000275,1666.5613799000275,1666.5613799000275,1666.5613799000275,1668.310292500013,['l'],0,[1.7372255999944173],[None],1668.3117994000204,1668.3385696000187,1668.3385696000187,1668.3385696000187,1668.7912184000015,5,0.46282800001790747,5,0.46282800001790747,,,,,,,,sub116_AB,001,2026-01-31_19h32.14.994,recognitionstage,,2025.1.1,60.047617752968705,2026-01-31 19h33.16.631851 +0530,
,,,23,23,0,23,frames\Vid23_EM_T.png,frames\Vid23_L.png,['l'],1,[2.9391268999897875],[None],1,1.2814417000045069,,,,,0,23,23,22,1668.8232455000398,,22,Male,Right handed,Normal,,,,,,,,,,,,,,,,,,,,,,,,,,,,,,,,,,,,,,,,1668.8064895000425,1668.8232455000398,1668.8232455000398,1668.8232455000398,1668.8232455000398,1668.8232455000398,1668.8232455000398,1671.775688200025,['l'],1,[2.9391268999897875],[None],1671.776556900004,1671.789850000001,1671.789850000001,1671.789850000001,1673.0742003000341,1,1.2814417000045069,1,1.2814417000045069,,,,,,,,sub116_AB,001,2026-01-31_19h32.14.994,recognitionstage,,2025.1.1,60.047617752968705,2026-01-31 19h33.16.631851 +0530,
,,,24,24,0,19,frames\Vid19_BB_T.png,frames\Vid19_L.png,['r'],1,[1.8710655000177212],[None],5,0.9987126000341959,,,,,0,24,24,18,1673.107241300051,,22,Male,Right handed,Normal,,,,,,,,,,,,,,,,,,,,,,,,,,,,,,,,,,,,,,,,1673.08512350003,1673.107241300051,1673.107241300051,1673.107241300051,1673.107241300051,1673.107241300051,1673.107241300051,1674.9917002000147,['r'],1,[1.8710655000177212],[None],1674.9925433000317,1675.006744400016,1675.006744400016,1675.006744400016,1676.0071322000003,5,0.9987126000341959,5,0.9987126000341959,,,,,,,,sub116_AB,001,2026-01-31_19h32.14.994,recognitionstage,,2025.1.1,60.047617752968705,2026-01-31 19h33.16.631851 +0530,
,,,25,25,0,8,frames\Vid8_BB_T.png,frames\Vid8_L.png,['r'],1,[3.1609827000065707],[None],5,1.0474573000101373,,,,,0,25,25,7,1676.0575417000218,,22,Male,Right handed,Normal,,,,,,,,,,,,,,,,,,,,,,,,,,,,,,,,,,,,,,,,1676.0438867000048,1676.0575417000218,1676.0575417000218,1676.0575417000218,1676.0575417000218,1676.0575417000218,1676.0575417000218,1679.2256235000095,['r'],1,[3.1609827000065707],[None],1679.2269859000226,1679.254635600024,1679.254635600024,1679.254635600024,1680.2903798000189,5,1.0474573000101373,5,1.0474573000101373,,,,,,,,sub116_AB,001,2026-01-31_19h32.14.994,recognitionstage,,2025.1.1,60.047617752968705,2026-01-31 19h33.16.631851 +0530,
,,,26,26,0,29,frames\Vid29_BB_T.png,frames\Vid29_L.png,['r'],1,[3.7470361999585293],[None],5,0.6480334000079893,,,,,0,26,26,28,1680.3114759000018,,22,Male,Right handed,Normal,,,,,,,,,,,,,,,,,,,,,,,,,,,,,,,,,,,,,,,,1680.3009178000502,1680.3114759000018,1680.3114759000018,1680.3114759000018,1680.3114759000018,1680.3114759000018,1680.3114759000018,1684.0752394000301,['r'],1,[3.7470361999585293],[None],1684.0759912000503,1684.089700600016,1684.089700600016,1684.089700600016,1684.7414890000364,5,0.6480334000079893,5,0.6480334000079893,,,,,,,,sub116_AB,001,2026-01-31_19h32.14.994,recognitionstage,,2025.1.1,60.047617752968705,2026-01-31 19h33.16.631851 +0530,
,,,27,27,0,34,frames\Vid34_BB_T.png,frames\Vid34_L.png,['r'],0,[2.7808582999859937],[None],5,0.765833500016015,,,,,0,27,27,33,1684.7736094000284,,22,Male,Right handed,Normal,,,,,,,,,,,,,,,,,,,,,,,,,,,,,,,,,,,,,,,,1684.753217300051,1684.7736094000284,1684.7736094000284,1684.7736094000284,1684.7736094000284,1684.7736094000284,1684.7736094000284,1687.5594392000348,['r'],0,[2.7808582999859937],[None],1687.560437600012,1687.5732211000286,1687.5732211000286,1687.5732211000286,1688.3405713000102,5,0.765833500016015,5,0.765833500016015,,,,,,,,sub116_AB,001,2026-01-31_19h32.14.994,recognitionstage,,2025.1.1,60.047617752968705,2026-01-31 19h33.16.631851 +0530,
,,,28,28,0,3,frames\Vid3_BB_T.png,frames\Vid3_L.png,['r'],1,[2.9717653000261635],[None],5,1.4321986000286415,,,,,0,28,28,2,1688.3906243000529,,22,Male,Right handed,Normal,,,,,,,,,,,,,,,,,,,,,,,,,,,,,,,,,,,,,,,,1688.3807092000498,1688.3906243000529,1688.3906243000529,1688.3906243000529,1688.3906243000529,1688.3906243000529,1688.3906243000529,1691.3749809000292,['r'],1,[2.9717653000261635],[None],1691.3756510000094,1691.3898100000224,1691.3898100000224,1691.3898100000224,1692.8241366000148,5,1.4321986000286415,5,1.4321986000286415,,,,,,,,sub116_AB,001,2026-01-31_19h32.14.994,recognitionstage,,2025.1.1,60.047617752968705,2026-01-31 19h33.16.631851 +0530,
,,,29,29,0,26,frames\Vid26_EM_T.png,frames\Vid26_L.png,['l'],1,[2.207375400001183],[None],5,1.0808500000275671,,,,,0,29,29,25,1692.8590651000268,,22,Male,Right handed,Normal,,,,,,,,,,,,,,,,,,,,,,,,,,,,,,,,,,,,,,,,1692.839239300054,1692.8590651000268,1692.8590651000268,1692.8590651000268,1692.8590651000268,1692.8590651000268,1692.8590651000268,1695.0758302000468,['l'],1,[2.207375400001183],[None],1695.0771260000183,1695.0897232000134,1695.0897232000134,1695.0897232000134,1696.1743595000007,5,1.0808500000275671,5,1.0808500000275671,,,,,,,,sub116_AB,001,2026-01-31_19h32.14.994,recognitionstage,,2025.1.1,60.047617752968705,2026-01-31 19h33.16.631851 +0530,
,,,30,30,0,35,frames\Vid35_EM_T.png,frames\Vid35_L.png,['r'],1,[4.138788899988867],[None],1,1.030797799990978,,,,,0,30,30,34,1696.1917765000253,,22,Male,Right handed,Normal,,,,,,,,,,,,,,,,,,,,,,,,,,,,,,,,,,,,,,,,1696.1824369000387,1696.1917765000253,1696.1917765000253,1696.1917765000253,1696.1917765000253,1696.1917765000253,1696.1917765000253,1700.3423931000289,['r'],1,[4.138788899988867],[None],1700.3436496000504,1700.3564117000205,1700.3564117000205,1700.3564117000205,1701.390942100028,1,1.030797799990978,1,1.030797799990978,,,,,,,,sub116_AB,001,2026-01-31_19h32.14.994,recognitionstage,,2025.1.1,60.047617752968705,2026-01-31 19h33.16.631851 +0530,
,,,31,31,0,20,frames\Vid20_EM_T.png,frames\Vid20_L.png,['r'],1,[5.617543399974238],[None],2,1.5479512000456452,,,,,0,31,31,19,1701.40902120003,,22,Male,Right handed,Normal,,,,,,,,,,,,,,,,,,,,,,,,,,,,,,,,,,,,,,,,1701.3974674000056,1701.40902120003,1701.40902120003,1701.40902120003,1701.40902120003,1701.40902120003,1701.40902120003,1707.0425088000484,['r'],1,[5.617543399974238],[None],1707.0435554000433,1707.056566400046,1707.056566400046,1707.056566400046,1708.60803090001,2,1.5479512000456452,2,1.5479512000456452,,,,,,,,sub116_AB,001,2026-01-31_19h32.14.994,recognitionstage,,2025.1.1,60.047617752968705,2026-01-31 19h33.16.631851 +0530,
,,,32,32,0,10,frames\Vid10_BB_T.png,frames\Vid10_L.png,['r'],0,[2.697195000015199],[None],1,0.6812560000107624,,,,,0,32,32,9,1708.6573671000078,,22,Male,Right handed,Normal,,,,,,,,,,,,,,,,,,,,,,,,,,,,,,,,,,,,,,,,1708.6499800000456,1708.6573671000078,1708.6573671000078,1708.6573671000078,1708.6573671000078,1708.6573671000078,1708.6573671000078,1711.3588177000056,['r'],0,[2.697195000015199],[None],1711.3599461000413,1711.3735437000287,1711.3735437000287,1711.3735437000287,1712.0574581000255,1,0.6812560000107624,1,0.6812560000107624,,,,,,,,sub116_AB,001,2026-01-31_19h32.14.994,recognitionstage,,2025.1.1,60.047617752968705,2026-01-31 19h33.16.631851 +0530,
,,,33,33,0,24,frames\Vid24_BB_T.png,frames\Vid24_L.png,['l'],1,[2.2850511000142433],[None],5,1.1988385999575257,,,,,0,33,33,23,1712.0933369000559,,22,Male,Right handed,Normal,,,,,,,,,,,,,,,,,,,,,,,,,,,,,,,,,,,,,,,,1712.0719977000263,1712.0933369000559,1712.0933369000559,1712.0933369000559,1712.0933369000559,1712.0933369000559,1712.0933369000559,1714.3920801000204,['l'],1,[2.2850511000142433],[None],1714.3931217000354,1714.4068323000101,1714.4068323000101,1714.4068323000101,1715.6075081000454,5,1.1988385999575257,5,1.1988385999575257,,,,,,,,sub116_AB,001,2026-01-31_19h32.14.994,recognitionstage,,2025.1.1,60.047617752968705,2026-01-31 19h33.16.631851 +0530,
,,,34,34,0,7,frames\Vid7_EM_T.png,frames\Vid7_L.png,['r'],0,[3.4964216999942437],[None],1,1.2835215000086464,,,,,0,34,34,6,1715.674297300051,,22,Male,Right handed,Normal,,,,,,,,,,,,,,,,,,,,,,,,,,,,,,,,,,,,,,,,1715.6556715000188,1715.674297300051,1715.674297300051,1715.674297300051,1715.674297300051,1715.674297300051,1715.674297300051,1719.175073100021,['r'],0,[3.4964216999942437],[None],1719.1759128000122,1719.1904220000142,1719.1904220000142,1719.1904220000142,1720.4740275000222,1,1.2835215000086464,1,1.2835215000086464,,,,,,,,sub116_AB,001,2026-01-31_19h32.14.994,recognitionstage,,2025.1.1,60.047617752968705,2026-01-31 19h33.16.631851 +0530,
,,,35,35,0,15,frames\Vid15_BB_T.png,frames\Vid15_L.png,['l'],0,[2.9155638000229374],[None],2,0.7801593000185676,,,,,0,35,35,14,1720.5429876000271,,22,Male,Right handed,Normal,,,,,,,,,,,,,,,,,,,,,,,,,,,,,,,,,,,,,,,,1720.5234062000527,1720.5429876000271,1720.5429876000271,1720.5429876000271,1720.5429876000271,1720.5429876000271,1720.5429876000271,1723.4606054000324,['l'],0,[2.9155638000229374],[None],1723.4619873000192,1723.4882197000552,1723.4882197000552,1723.4882197000552,1724.256960800034,2,0.7801593000185676,2,0.7801593000185676,,,,,,,,sub116_AB,001,2026-01-31_19h32.14.994,recognitionstage,,2025.1.1,60.047617752968705,2026-01-31 19h33.16.631851 +0530,
,,,36,36,0,36,frames\Vid36_BB_T.png,frames\Vid36_L.png,['r'],0,[2.061538899957668],[None],4,1.4982588000129908,,,,,0,36,36,35,1724.2929624000099,,22,Male,Right handed,Normal,,,,,,,,,,,,,,,,,,,,,,,,,,,,,,,,,,,,,,,,1724.2687902000034,1724.2929624000099,1724.2929624000099,1724.2929624000099,1724.2929624000099,1724.2929624000099,1724.2929624000099,1726.358569700038,['r'],0,[2.061538899957668],[None],1726.3595484000398,1726.3743444000138,1726.3743444000138,1726.3743444000138,1727.8750703000114,4,1.4982588000129908,4,1.4982588000129908,,,,,,,,sub116_AB,001,2026-01-31_19h32.14.994,recognitionstage,,2025.1.1,60.047617752968705,2026-01-31 19h33.16.631851 +0530,
,,,37,37,0,5,frames\Vid5_EM_T.png,frames\Vid5_L.png,['l'],1,[3.006280500034336],[None],2,1.9986572000198066,,,,,0,37,37,4,1727.9241266000317,,22,Male,Right handed,Normal,,,,,,,,,,,,,,,,,,,,,,,,,,,,,,,,,,,,,,,,1727.9063262000564,1727.9241266000317,1727.9241266000317,1727.9241266000317,1727.9241266000317,1727.9241266000317,1727.9241266000317,1730.941995900008,['l'],1,[3.006280500034336],[None],1730.9427442000015,1730.9567054000217,1730.9567054000217,1730.9567054000217,1732.9570167000056,2,1.9986572000198066,2,1.9986572000198066,,,,,,,,sub116_AB,001,2026-01-31_19h32.14.994,recognitionstage,,2025.1.1,60.047617752968705,2026-01-31 19h33.16.631851 +0530,
,,,38,38,0,32,frames\Vid32_EM_T.png,frames\Vid32_L.png,['r'],0,[2.3768518999568187],[None],2,1.3826961999875493,,,,,0,38,38,31,1732.977649700013,,22,Male,Right handed,Normal,,,,,,,,,,,,,,,,,,,,,,,,,,,,,,,,,,,,,,,,1732.9673489000415,1732.977649700013,1732.977649700013,1732.977649700013,1732.977649700013,1732.977649700013,1732.977649700013,1735.3588369000354,['r'],0,[2.3768518999568187],[None],1735.3598506000126,1735.3735176000046,1735.3735176000046,1735.3735176000046,1736.7571324000019,2,1.3826961999875493,2,1.3826961999875493,,,,,,,,sub116_AB,001,2026-01-31_19h32.14.994,recognitionstage,,2025.1.1,60.047617752968705,2026-01-31 19h33.16.631851 +0530,
,,,39,39,0,22,frames\Vid22_EM_T.png,frames\Vid22_L.png,['r'],1,[2.772162400011439],[None],2,1.4971823999658227,,,,,0,39,39,21,1736.7902976000332,,22,Male,Right handed,Normal,,,,,,,,,,,,,,,,,,,,,,,,,,,,,,,,,,,,,,,,1736.7690020000446,1736.7902976000332,1736.7902976000332,1736.7902976000332,1736.7902976000332,1736.7902976000332,1736.7902976000332,1739.576437300013,['r'],1,[2.772162400011439],[None],1739.5774035000359,1739.5898217000067,1739.5898217000067,1739.5898217000067,1741.0904922000482,2,1.4971823999658227,2,1.4971823999658227,,,,,,,,sub116_AB,001,2026-01-31_19h32.14.994,recognitionstage,,2025.1.1,60.047617752968705,2026-01-31 19h33.16.631851 +0530,
,,,,,,,,,,,,,,,,,,,,,,,,,22,Male,Right handed,Normal,,,,,,,,,,,,,,,,,,,,,,,,,,,,,,,,,,,,,,,,,,,,,,,,,,,,,,,,,,,,,1741.0905786000076,1741.107444400026,1741.107444400026,1761.1081770000164,1761.1081770000164,1761.0903318000492,None,sub116_AB,001,2026-01-31_19h32.14.994,recognitionstage,,2025.1.1,60.047617752968705,2026-01-31 19h33.16.631851 +0530,
