path,duration,is_repeat,thisN,thisTrialN,thisRepN,movie_id,target_img,lure_img,resp.keys,resp.corr,resp.rt,resp.duration,conf_radio.response,conf_radio.rt,movie.thisRepN,movie.thisTrialN,movie.thisN,movie.thisIndex,recogloop.thisRepN,recogloop.thisTrialN,recogloop.thisN,recogloop.thisIndex,thisRow.t,notes,age,gender,handedness,vision,caffeine_2h,alcohol_smoke_12h,demographics.started,demographics.stopped,Instructions.started,text1.started,key_resp.started,Instructions.stopped,key_resp.keys,key_resp.rt,key_resp.duration,instruction_2.started,text2.started,key_resp_2.started,instruction_2.stopped,key_resp_2.keys,key_resp_2.rt,key_resp_2.duration,Videos.started,movie_2.started,vigilance_resp.started,movie_2.stopped,Videos.stopped,movie.vigilance_resp.keys,vigilance_pressed,vigilance_correct,ISI.started,text.started,ISI.stopped,text.stopped,movie.vigilance_resp.rt,movie.vigilance_resp.duration,recognition.started,text_4.started,key_resp_3.started,recognition.stopped,key_resp_3.keys,key_resp_3.rt,key_resp_3.duration,recognition_task.started,leftimage.started,rightimage.started,resp.started,frames_question.started,right_label.started,left_label.started,recognition_task.stopped,recogloop.resp.keys,recogloop.resp.corr,recogloop.resp.rt,recogloop.resp.duration,confidence.started,conf_text.started,conf_radio.started,conf_label.started,confidence.stopped,recogloop.conf_radio.response,recogloop.conf_radio.rt,confidence,confidence_rt,thank_you.started,text_6.started,key_resp_4.started,thank_you.stopped,key_resp_4.keys,key_resp_4.rt,key_resp_4.duration,participant,session,date,expName,expVersion,psychopyVersion,frameRate,expStart,...105
,,,,,,,,,,,,,,,,,,,,,,,,,23,Male,Right handed,Normal,Caffeine consumed in last 2 hours?,Alcohol or smoking in last 12 hours?,0.019390399998883368,0.02176549999967392,,,,,,,,,,,,,,,,,,,,,,,,,,,,,,,,,,,,,,,,,,,,,,,,,,,,,,,,,,,,,,,,sub123_AB,001,2026-02-01_18h15.07.003,recognitionstage,,2025.1.1,60.21738475918487,2026-02-01 18h15.47.909907 +0530,
,,,,,,,,,,,,,,,,,,,,,,,,,23,Male,Right handed,Normal,,,,,0.02178729999832285,0.03848429999925429,0.03848429999925429,12.442237199999,space,12.399429899998722,None,,,,,,,,,,,,,,,,,,,,,,,,,,,,,,,,,,,,,,,,,,,,,,,,,,,,,,,,,sub123_AB,001,2026-02-01_18h15.07.003,recognitionstage,,2025.1.1,60.21738475918487,2026-02-01 18h15.47.909907 +0530,
,,,,,,,,,,,,,,,,,,,,,,,,,23,Male,Right handed,Normal,,,,,,,,,,,,12.442306899998584,12.455392799998663,12.455392799998663,23.92279899999994,space,11.454042299999855,None,,,,,,,,,,,,,,,,,,,,,,,,,,,,,,,,,,,,,,,,,,,,,,,,,,sub123_AB,001,2026-02-01_18h15.07.003,recognitionstage,,2025.1.1,60.21738475918487,2026-02-01 18h15.47.909907 +0530,
abrupt_videos\abrupt_30.mp4,36,0,44,44,0,,,,,,,,,,0,44,44,33,,,,,1523.836992399998,,23,Male,Right handed,Normal,,,,,,,,,,,,,,,,,,,1523.7812261999989,1523.836992399998,1523.836992399998,1560.469830600001,1560.3184791999975,None,0,1,1560.4536736999999,1560.469830600001,1562.9567265999995,1523.836992399998,1.9369275000026391,None,1562.9568311999992,1562.9720929999985,1562.9720929999985,1605.6227543000005,space,42.64113820000057,None,,,,,,,,,,,,,,,,,,,,,,,,,,,,,sub123_AB,001,2026-02-01_18h15.07.003,recognitionstage,,2025.1.1,60.21738475918487,2026-02-01 18h15.47.909907 +0530,
,,,0,0,0,29,frames\Vid29_BB_T.png,frames\Vid29_L.png,['l'],0,[3.64047600000049],[None],5,5.230367699998169,,,,,0,0,0,28,1605.6524267999976,,23,Male,Right handed,Normal,,,,,,,,,,,,,,,,,,,,,,,,,,,,,,,,,,,,,,,,1605.6408141999982,1605.6524267999976,1605.6524267999976,1605.6524267999976,1605.6524267999976,1605.6524267999976,1605.6524267999976,1609.3064934999984,['l'],0,[3.64047600000049],[None],1609.3075469999985,1609.335621799999,1609.335621799999,1609.335621799999,1614.5545513999987,5,5.230367699998169,5,5.230367699998169,,,,,,,,sub123_AB,001,2026-02-01_18h15.07.003,recognitionstage,,2025.1.1,60.21738475918487,2026-02-01 18h15.47.909907 +0530,
,,,1,1,0,38,frames\Vid38_EM_T.png,frames\Vid38_L.png,['l'],0,[4.026806499998202],[None],5,2.2649901999975555,,,,,0,1,1,37,1614.5860577999974,,23,Male,Right handed,Normal,,,,,,,,,,,,,,,,,,,,,,,,,,,,,,,,,,,,,,,,1614.5668908999996,1614.5860577999974,1614.5860577999974,1614.5860577999974,1614.5860577999974,1614.5860577999974,1614.5860577999974,1618.6222302000006,['l'],0,[4.026806499998202],[None],1618.6231270000007,1618.6374344999986,1618.6374344999986,1618.6374344999986,1620.9045664999994,5,2.2649901999975555,5,2.2649901999975555,,,,,,,,sub123_AB,001,2026-02-01_18h15.07.003,recognitionstage,,2025.1.1,60.21738475918487,2026-02-01 18h15.47.909907 +0530,
,,,2,2,0,36,frames\Vid36_BB_T.png,frames\Vid36_L.png,['l'],1,[9.299895500000275],[None],4,2.9491007999968133,,,,,0,2,2,35,1620.9370555000005,,23,Male,Right handed,Normal,,,,,,,,,,,,,,,,,,,,,,,,,,,,,,,,,,,,,,,,1620.9158272000004,1620.9370555000005,1620.9370555000005,1620.9370555000005,1620.9370555000005,1620.9370555000005,1620.9370555000005,1630.238533400001,['l'],1,[9.299895500000275],[None],1630.2393647000008,1630.2540768999988,1630.2540768999988,1630.2540768999988,1633.2044509999996,4,2.9491007999968133,4,2.9491007999968133,,,,,,,,sub123_AB,001,2026-02-01_18h15.07.003,recognitionstage,,2025.1.1,60.21738475918487,2026-02-01 18h15.47.909907 +0530,
,,,3,3,0,8,frames\Vid8_BB_T.png,frames\Vid8_L.png,['r'],1,[3.686560800000734],[None],5,1.848717000000761,,,,,0,3,3,7,1633.254382699999,,23,Male,Right handed,Normal,,,,,,,,,,,,,,,,,,,,,,,,,,,,,,,,,,,,,,,,1633.2429713000001,1633.254382699999,1633.254382699999,1633.254382699999,1633.254382699999,1633.254382699999,1633.254382699999,1636.9555557000003,['r'],1,[3.686560800000734],[None],1636.9564716000004,1636.9708512999987,1636.9708512999987,1636.9708512999987,1638.8209643999999,5,1.848717000000761,5,1.848717000000761,,,,,,,,sub123_AB,001,2026-02-01_18h15.07.003,recognitionstage,,2025.1.1,60.21738475918487,2026-02-01 18h15.47.909907 +0530,
,,,4,4,0,39,frames\Vid39_BB_T.png,frames\Vid39_L.png,['l'],1,[4.263889099998778],[None],5,1.3490003000006254,,,,,0,4,4,38,1638.8531735999986,,23,Male,Right handed,Normal,,,,,,,,,,,,,,,,,,,,,,,,,,,,,,,,,,,,,,,,1638.8407341000002,1638.8531735999986,1638.8531735999986,1638.8531735999986,1638.8531735999986,1638.8531735999986,1638.8531735999986,1643.1221395999983,['l'],1,[4.263889099998778],[None],1643.1227424000008,1643.137447799998,1643.137447799998,1643.137447799998,1644.4877235000004,5,1.3490003000006254,5,1.3490003000006254,,,,,,,,sub123_AB,001,2026-02-01_18h15.07.003,recognitionstage,,2025.1.1,60.21738475918487,2026-02-01 18h15.47.909907 +0530,
,,,5,5,0,21,frames\Vid21_BB_T.png,frames\Vid21_L.png,['r'],1,[4.1646303000015905],[None],5,1.032485399999132,,,,,0,5,5,20,1644.520360299999,,23,Male,Right handed,Normal,,,,,,,,,,,,,,,,,,,,,,,,,,,,,,,,,,,,,,,,1644.4996835000002,1644.520360299999,1644.520360299999,1644.520360299999,1644.520360299999,1644.520360299999,1644.520360299999,1648.6883102999982,['r'],1,[4.1646303000015905],[None],1648.6889909000001,1648.7041019000008,1648.7041019000008,1648.7041019000008,1649.7378616000005,5,1.032485399999132,5,1.032485399999132,,,,,,,,sub123_AB,001,2026-02-01_18h15.07.003,recognitionstage,,2025.1.1,60.21738475918487,2026-02-01 18h15.47.909907 +0530,
,,,6,6,0,12,frames\Vid12_EM_T.png,frames\Vid12_L.png,['l'],0,[4.825093399998877],[None],3,1.5316174999970826,,,,,0,6,6,11,1649.7879015999988,,23,Male,Right handed,Normal,,,,,,,,,,,,,,,,,,,,,,,,,,,,,,,,,,,,,,,,1649.7812317000007,1649.7879015999988,1649.7879015999988,1649.7879015999988,1649.7879015999988,1649.7879015999988,1649.7879015999988,1654.622591999998,['l'],0,[4.825093399998877],[None],1654.6236308999996,1654.6373841000004,1654.6373841000004,1654.6373841000004,1656.1716608999977,3,1.5316174999970826,3,1.5316174999970826,,,,,,,,sub123_AB,001,2026-02-01_18h15.07.003,recognitionstage,,2025.1.1,60.21738475918487,2026-02-01 18h15.47.909907 +0530,
,,,7,7,0,14,frames\Vid14_BB_T.png,frames\Vid14_L.png,['r'],1,[4.308195300000079],[None],2,1.6464286000009452,,,,,0,7,7,13,1656.2408367999979,,23,Male,Right handed,Normal,,,,,,,,,,,,,,,,,,,,,,,,,,,,,,,,,,,,,,,,1656.2169300000005,1656.2408367999979,1656.2408367999979,1656.2408367999979,1656.2408367999979,1656.2408367999979,1656.2408367999979,1660.5571514999992,['r'],1,[4.308195300000079],[None],1660.5583709999974,1660.5704934000005,1660.5704934000005,1660.5704934000005,1662.2220603999976,2,1.6464286000009452,2,1.6464286000009452,,,,,,,,sub123_AB,001,2026-02-01_18h15.07.003,recognitionstage,,2025.1.1,60.21738475918487,2026-02-01 18h15.47.909907 +0530,
,,,8,8,0,11,frames\Vid11_EM_T.png,frames\Vid11_L.png,['r'],1,[2.85100009999951],[None],2,1.8823077999986708,,,,,0,8,8,10,1662.2741745000003,,23,Male,Right handed,Normal,,,,,,,,,,,,,,,,,,,,,,,,,,,,,,,,,,,,,,,,1662.264642,1662.2741745000003,1662.2741745000003,1662.2741745000003,1662.2741745000003,1662.2741745000003,1662.2741745000003,1665.1394291999986,['r'],1,[2.85100009999951],[None],1665.1403477999975,1665.1541988000008,1665.1541988000008,1665.1541988000008,1667.0377424999988,2,1.8823077999986708,2,1.8823077999986708,,,,,,,,sub123_AB,001,2026-02-01_18h15.07.003,recognitionstage,,2025.1.1,60.21738475918487,2026-02-01 18h15.47.909907 +0530,
,,,9,9,0,20,frames\Vid20_EM_T.png,frames\Vid20_L.png,['l'],1,[5.114742599998863],[None],3,2.413827100001072,,,,,0,9,9,19,1667.058213899998,,23,Male,Right handed,Normal,,,,,,,,,,,,,,,,,,,,,,,,,,,,,,,,,,,,,,,,1667.0438431999992,1667.058213899998,1667.058213899998,1667.058213899998,1667.058213899998,1667.058213899998,1667.058213899998,1672.189805,['l'],1,[5.114742599998863],[None],1672.1908576999977,1672.203771999999,1672.203771999999,1672.203771999999,1674.621999699999,3,2.413827100001072,3,2.413827100001072,,,,,,,,sub123_AB,001,2026-02-01_18h15.07.003,recognitionstage,,2025.1.1,60.21738475918487,2026-02-01 18h15.47.909907 +0530,
,,,10,10,0,32,frames\Vid32_EM_T.png,frames\Vid32_L.png,['l'],1,[2.7273893999990833],[None],5,2.0977823000030185,,,,,0,10,10,31,1674.6536690999983,,23,Male,Right handed,Normal,,,,,,,,,,,,,,,,,,,,,,,,,,,,,,,,,,,,,,,,1674.6352461000006,1674.6536690999983,1674.6536690999983,1674.6536690999983,1674.6536690999983,1674.6536690999983,1674.6536690999983,1677.3893205999975,['l'],1,[2.7273893999990833],[None],1677.3906176,1677.404069099999,1677.404069099999,1677.404069099999,1679.5053669999998,5,2.0977823000030185,5,2.0977823000030185,,,,,,,,sub123_AB,001,2026-02-01_18h15.07.003,recognitionstage,,2025.1.1,60.21738475918487,2026-02-01 18h15.47.909907 +0530,
,,,11,11,0,7,frames\Vid7_EM_T.png,frames\Vid7_L.png,['r'],0,[4.06560570000147],[None],5,1.4820971000008285,,,,,0,11,11,6,1679.5712353,,23,Male,Right handed,Normal,,,,,,,,,,,,,,,,,,,,,,,,,,,,,,,,,,,,,,,,1679.5491815999976,1679.5712353,1679.5712353,1679.5712353,1679.5712353,1679.5712353,1679.5712353,1683.6388403,['r'],0,[4.06560570000147],[None],1683.6397132000002,1683.6541450999994,1683.6541450999994,1683.6541450999994,1685.1382632000004,5,1.4820971000008285,5,1.4820971000008285,,,,,,,,sub123_AB,001,2026-02-01_18h15.07.003,recognitionstage,,2025.1.1,60.21738475918487,2026-02-01 18h15.47.909907 +0530,
,,,12,12,0,3,frames\Vid3_BB_T.png,frames\Vid3_L.png,['r'],1,[2.526716000000306],[None],5,1.6491369000032137,,,,,0,12,12,2,1685.1902796999984,,23,Male,Right handed,Normal,,,,,,,,,,,,,,,,,,,,,,,,,,,,,,,,,,,,,,,,1685.1782657999993,1685.1902796999984,1685.1902796999984,1685.1902796999984,1685.1902796999984,1685.1902796999984,1685.1902796999984,1687.722377699998,['r'],1,[2.526716000000306],[None],1687.723304199999,1687.7377373,1687.7377373,1687.7377373,1689.3877592000008,5,1.6491369000032137,5,1.6491369000032137,,,,,,,,sub123_AB,001,2026-02-01_18h15.07.003,recognitionstage,,2025.1.1,60.21738475918487,2026-02-01 18h15.47.909907 +0530,
,,,13,13,0,35,frames\Vid35_EM_T.png,frames\Vid35_L.png,['l'],1,[2.6043790000003355],[None],5,0.8316714000029606,,,,,0,13,13,34,1689.408517599999,,23,Male,Right handed,Normal,,,,,,,,,,,,,,,,,,,,,,,,,,,,,,,,,,,,,,,,1689.3981403999987,1689.408517599999,1689.408517599999,1689.408517599999,1689.408517599999,1689.408517599999,1689.408517599999,1692.0222584999992,['l'],1,[2.6043790000003355],[None],1692.0231049999984,1692.0373517999997,1692.0373517999997,1692.0373517999997,1692.8721099999984,5,0.8316714000029606,5,0.8316714000029606,,,,,,,,sub123_AB,001,2026-02-01_18h15.07.003,recognitionstage,,2025.1.1,60.21738475918487,2026-02-01 18h15.47.909907 +0530,
,,,14,14,0,34,frames\Vid34_BB_T.png,frames\Vid34_L.png,['r'],1,[15.005021600001783],[None],2,1.8310586000006879,,,,,0,14,14,33,1692.9038313,,23,Male,Right handed,Normal,,,,,,,,,,,,,,,,,,,,,,,,,,,,,,,,,,,,,,,,1692.8823248999997,1692.9038313,1692.9038313,1692.9038313,1692.9038313,1692.9038313,1692.9038313,1707.9237190999975,['r'],1,[15.005021600001783],[None],1707.9249550000004,1707.9368949,1707.9368949,1707.9368949,1709.7713095999989,2,1.8310586000006879,2,1.8310586000006879,,,,,,,,sub123_AB,001,2026-02-01_18h15.07.003,recognitionstage,,2025.1.1,60.21738475918487,2026-02-01 18h15.47.909907 +0530,
,,,15,15,0,37,frames\Vid37_BB_T.png,frames\Vid37_L.png,['r'],1,[2.1933682999988378],[None],5,1.2811717000004137,,,,,0,15,15,36,1709.8036527999993,,23,Male,Right handed,Normal,,,,,,,,,,,,,,,,,,,,,,,,,,,,,,,,,,,,,,,,1709.7838532999976,1709.8036527999993,1709.8036527999993,1709.8036527999993,1709.8036527999993,1709.8036527999993,1709.8036527999993,1712.0061875999982,['r'],1,[2.1933682999988378],[None],1712.007150299998,1712.0208150999988,1712.0208150999988,1712.0208150999988,1713.3044222000008,5,1.2811717000004137,5,1.2811717000004137,,,,,,,,sub123_AB,001,2026-02-01_18h15.07.003,recognitionstage,,2025.1.1,60.21738475918487,2026-02-01 18h15.47.909907 +0530,
,,,16,16,0,24,frames\Vid24_BB_T.png,frames\Vid24_L.png,['l'],1,[3.10772260000158],[None],5,1.5977068999964104,,,,,0,16,16,23,1713.3372187000004,,23,Male,Right handed,Normal,,,,,,,,,,,,,,,,,,,,,,,,,,,,,,,,,,,,,,,,1713.3187597999986,1713.3372187000004,1713.3372187000004,1713.3372187000004,1713.3372187000004,1713.3372187000004,1713.3372187000004,1716.4567683000005,['l'],1,[3.10772260000158],[None],1716.4578233999982,1716.4702275,1716.4702275,1716.4702275,1718.0714084999981,5,1.5977068999964104,5,1.5977068999964104,,,,,,,,sub123_AB,001,2026-02-01_18h15.07.003,recognitionstage,,2025.1.1,60.21738475918487,2026-02-01 18h15.47.909907 +0530,
,,,17,17,0,28,frames\Vid28_EM_T.png,frames\Vid28_L.png,['r'],1,[2.115512200001831],[None],5,2.3971249999995052,,,,,0,17,17,27,1718.0894620999989,,23,Male,Right handed,Normal,,,,,,,,,,,,,,,,,,,,,,,,,,,,,,,,,,,,,,,,1718.081516100001,1718.0894620999989,1718.0894620999989,1718.0894620999989,1718.0894620999989,1718.0894620999989,1718.0894620999989,1720.2067939999997,['r'],1,[2.115512200001831],[None],1720.207975899999,1720.220628099998,1720.220628099998,1720.220628099998,1722.622007699998,5,2.3971249999995052,5,2.3971249999995052,,,,,,,,sub123_AB,001,2026-02-01_18h15.07.003,recognitionstage,,2025.1.1,60.21738475918487,2026-02-01 18h15.47.909907 +0530,
,,,18,18,0,22,frames\Vid22_EM_T.png,frames\Vid22_L.png,['r'],1,[3.103211300000112],[None],5,1.2309608999967168,,,,,0,18,18,21,1722.6537640999977,,23,Male,Right handed,Normal,,,,,,,,,,,,,,,,,,,,,,,,,,,,,,,,,,,,,,,,1722.6353626,1722.6537640999977,1722.6537640999977,1722.6537640999977,1722.6537640999977,1722.6537640999977,1722.6537640999977,1725.7735200000006,['r'],1,[3.103211300000112],[None],1725.7745893999981,1725.7869889999984,1725.7869889999984,1725.7869889999984,1727.0215093999996,5,1.2309608999967168,5,1.2309608999967168,,,,,,,,sub123_AB,001,2026-02-01_18h15.07.003,recognitionstage,,2025.1.1,60.21738475918487,2026-02-01 18h15.47.909907 +0530,
,,,19,19,0,1,frames\Vid1_EM_T.png,frames\Vid1_L.png,['r'],1,[9.156350699999166],[None],5,0.846434600000066,,,,,0,19,19,0,1727.088619799999,,23,Male,Right handed,Normal,,,,,,,,,,,,,,,,,,,,,,,,,,,,,,,,,,,,,,,,1727.0668171999987,1727.088619799999,1727.088619799999,1727.088619799999,1727.088619799999,1727.088619799999,1727.088619799999,1736.2571270999997,['r'],1,[9.156350699999166],[None],1736.2584726000005,1736.2708607000004,1736.2708607000004,1736.2708607000004,1737.1210847999992,5,0.846434600000066,5,0.846434600000066,,,,,,,,sub123_AB,001,2026-02-01_18h15.07.003,recognitionstage,,2025.1.1,60.21738475918487,2026-02-01 18h15.47.909907 +0530,
,,,20,20,0,27,frames\Vid27_BB_T.png,frames\Vid27_L.png,['l'],1,[7.6388694000015676],[None],1,2.515311399998609,,,,,0,20,20,26,1737.1421892999988,,23,Male,Right handed,Normal,,,,,,,,,,,,,,,,,,,,,,,,,,,,,,,,,,,,,,,,1737.1315835000005,1737.1421892999988,1737.1421892999988,1737.1421892999988,1737.1421892999988,1737.1421892999988,1737.1421892999988,1744.789575599998,['l'],1,[7.6388694000015676],[None],1744.7903948999974,1744.8039752999994,1744.8039752999994,1744.8039752999994,1747.320718699999,1,2.515311399998609,1,2.515311399998609,,,,,,,,sub123_AB,001,2026-02-01_18h15.07.003,recognitionstage,,2025.1.1,60.21738475918487,2026-02-01 18h15.47.909907 +0530,
,,,21,21,0,40,frames\Vid40_EM_T.png,frames\Vid40_L.png,['r'],1,[3.5619381000033172],[None],3,1.38059400000202,,,,,0,21,21,39,1747.3391508000004,,23,Male,Right handed,Normal,,,,,,,,,,,,,,,,,,,,,,,,,,,,,,,,,,,,,,,,1747.3288268999986,1747.3391508000004,1747.3391508000004,1747.3391508000004,1747.3391508000004,1747.3391508000004,1747.3391508000004,1750.9072785000008,['r'],1,[3.5619381000033172],[None],1750.9081628000004,1750.920361399998,1750.920361399998,1750.920361399998,1752.3053672999977,3,1.38059400000202,3,1.38059400000202,,,,,,,,sub123_AB,001,2026-02-01_18h15.07.003,recognitionstage,,2025.1.1,60.21738475918487,2026-02-01 18h15.47.909907 +0530,
,,,22,22,0,2,frames\Vid2_BB_T.png,frames\Vid2_L.png,['l'],0,[4.234940499998629],[None],3,1.2123588000031305,,,,,0,22,22,1,1752.3543695999997,,23,Male,Right handed,Normal,,,,,,,,,,,,,,,,,,,,,,,,,,,,,,,,,,,,,,,,1752.3462836999988,1752.3543695999997,1752.3543695999997,1752.3543695999997,1752.3543695999997,1752.3543695999997,1752.3543695999997,1756.6079578000008,['l'],0,[4.234940499998629],[None],1756.6096646999995,1756.6355611999988,1756.6355611999988,1756.6355611999988,1757.8380242000003,3,1.2123588000031305,3,1.2123588000031305,,,,,,,,sub123_AB,001,2026-02-01_18h15.07.003,recognitionstage,,2025.1.1,60.21738475918487,2026-02-01 18h15.47.909907 +0530,
,,,23,23,0,16,frames\Vid16_EM_T.png,frames\Vid16_L.png,['r'],1,[6.833799500000168],[None],4,0.9309215000030235,,,,,0,23,23,15,1757.8910395999974,,23,Male,Right handed,Normal,,,,,,,,,,,,,,,,,,,,,,,,,,,,,,,,,,,,,,,,1757.879217399999,1757.8910395999974,1757.8910395999974,1757.8910395999974,1757.8910395999974,1757.8910395999974,1757.8910395999974,1764.739994999998,['r'],1,[6.833799500000168],[None],1764.7410278999978,1764.7537123999991,1764.7537123999991,1764.7537123999991,1765.6882411999995,4,0.9309215000030235,4,0.9309215000030235,,,,,,,,sub123_AB,001,2026-02-01_18h15.07.003,recognitionstage,,2025.1.1,60.21738475918487,2026-02-01 18h15.47.909907 +0530,
,,,24,24,0,30,frames\Vid30_EM_T.png,frames\Vid30_L.png,['l'],1,[5.201453399997263],[None],5,2.3139143000007607,,,,,0,24,24,29,1765.7234350999988,,23,Male,Right handed,Normal,,,,,,,,,,,,,,,,,,,,,,,,,,,,,,,,,,,,,,,,1765.7011307999983,1765.7234350999988,1765.7234350999988,1765.7234350999988,1765.7234350999988,1765.7234350999988,1765.7234350999988,1770.9397707000007,['l'],1,[5.201453399997263],[None],1770.9408281999986,1770.9536380000009,1770.9536380000009,1770.9536380000009,1773.2716781,5,2.3139143000007607,5,2.3139143000007607,,,,,,,,sub123_AB,001,2026-02-01_18h15.07.003,recognitionstage,,2025.1.1,60.21738475918487,2026-02-01 18h15.47.909907 +0530,
,,,25,25,0,26,frames\Vid26_EM_T.png,frames\Vid26_L.png,['r'],1,[2.485161700002209],[None],5,0.6315945999995165,,,,,0,25,25,25,1773.3038054000008,,23,Male,Right handed,Normal,,,,,,,,,,,,,,,,,,,,,,,,,,,,,,,,,,,,,,,,1773.2883682999982,1773.3038054000008,1773.3038054000008,1773.3038054000008,1773.3038054000008,1773.3038054000008,1773.3038054000008,1775.7896612999994,['r'],1,[2.485161700002209],[None],1775.7907032999992,1775.803732899998,1775.803732899998,1775.803732899998,1776.4375468999988,5,0.6315945999995165,5,0.6315945999995165,,,,,,,,sub123_AB,001,2026-02-01_18h15.07.003,recognitionstage,,2025.1.1,60.21738475918487,2026-02-01 18h15.47.909907 +0530,
,,,26,26,0,13,frames\Vid13_BB_T.png,frames\Vid13_L.png,['l'],0,[4.988888200001384],[None],2,1.3962274000004982,,,,,0,26,26,12,1776.4882089000002,,23,Male,Right handed,Normal,,,,,,,,,,,,,,,,,,,,,,,,,,,,,,,,,,,,,,,,1776.471360999998,1776.4882089000002,1776.4882089000002,1776.4882089000002,1776.4882089000002,1776.4882089000002,1776.4882089000002,1781.4904571999996,['l'],0,[4.988888200001384],[None],1781.4918744000006,1781.503977899998,1781.503977899998,1781.503977899998,1782.9054775999994,2,1.3962274000004982,2,1.3962274000004982,,,,,,,,sub123_AB,001,2026-02-01_18h15.07.003,recognitionstage,,2025.1.1,60.21738475918487,2026-02-01 18h15.47.909907 +0530,
,,,27,27,0,6,frames\Vid6_BB_T.png,frames\Vid6_L.png,['l'],1,[4.055409299999155],[None],5,1.7987333000019134,,,,,0,27,27,5,1782.9735229999987,,23,Male,Right handed,Normal,,,,,,,,,,,,,,,,,,,,,,,,,,,,,,,,,,,,,,,,1782.9496898999987,1782.9735229999987,1782.9735229999987,1782.9735229999987,1782.9735229999987,1782.9735229999987,1782.9735229999987,1787.0393795,['l'],1,[4.055409299999155],[None],1787.0403437999976,1787.0543611999983,1787.0543611999983,1787.0543611999983,1788.8550003,5,1.7987333000019134,5,1.7987333000019134,,,,,,,,sub123_AB,001,2026-02-01_18h15.07.003,recognitionstage,,2025.1.1,60.21738475918487,2026-02-01 18h15.47.909907 +0530,
,,,28,28,0,19,frames\Vid19_BB_T.png,frames\Vid19_L.png,['l'],1,[3.8823271000001114],[None],1,1.631339299998217,,,,,0,28,28,18,1788.8905568999999,,23,Male,Right handed,Normal,,,,,,,,,,,,,,,,,,,,,,,,,,,,,,,,,,,,,,,,1788.8707610000001,1788.8905568999999,1788.8905568999999,1788.8905568999999,1788.8905568999999,1788.8905568999999,1788.8905568999999,1792.7893571999975,['l'],1,[3.8823271000001114],[None],1792.790352599999,1792.8039903000008,1792.8039903000008,1792.8039903000008,1794.4388137000005,1,1.631339299998217,1,1.631339299998217,,,,,,,,sub123_AB,001,2026-02-01_18h15.07.003,recognitionstage,,2025.1.1,60.21738475918487,2026-02-01 18h15.47.909907 +0530,
,,,29,29,0,10,frames\Vid10_BB_T.png,frames\Vid10_L.png,['r'],1,[4.028373600001942],[None],5,1.8152800999996543,,,,,0,29,29,9,1794.5046407999998,,23,Male,Right handed,Normal,,,,,,,,,,,,,,,,,,,,,,,,,,,,,,,,,,,,,,,,1794.4816546999991,1794.5046407999998,1794.5046407999998,1794.5046407999998,1794.5046407999998,1794.5046407999998,1794.5046407999998,1798.539028699999,['r'],1,[4.028373600001942],[None],1798.5399271999977,1798.5547167999994,1798.5547167999994,1798.5547167999994,1800.3713879000006,5,1.8152800999996543,5,1.8152800999996543,,,,,,,,sub123_AB,001,2026-02-01_18h15.07.003,recognitionstage,,2025.1.1,60.21738475918487,2026-02-01 18h15.47.909907 +0530,
,,,30,30,0,4,frames\Vid4_EM_T.png,frames\Vid4_L.png,['l'],0,[9.883847400000377],[None],3,1.8655827000002319,,,,,0,30,30,3,1800.4410165999998,,23,Male,Right handed,Normal,,,,,,,,,,,,,,,,,,,,,,,,,,,,,,,,,,,,,,,,1800.4188298999998,1800.4410165999998,1800.4410165999998,1800.4410165999998,1800.4410165999998,1800.4410165999998,1800.4410165999998,1810.338721099999,['l'],0,[9.883847400000377],[None],1810.339567000001,1810.3540392999985,1810.3540392999985,1810.3540392999985,1812.2211912999974,3,1.8655827000002319,3,1.8655827000002319,,,,,,,,sub123_AB,001,2026-02-01_18h15.07.003,recognitionstage,,2025.1.1,60.21738475918487,2026-02-01 18h15.47.909907 +0530,
,,,31,31,0,25,frames\Vid25_BB_T.png,frames\Vid25_L.png,['r'],1,[4.819339600002422],[None],5,1.8975576999982877,,,,,0,31,31,24,1812.2415353999986,,23,Male,Right handed,Normal,,,,,,,,,,,,,,,,,,,,,,,,,,,,,,,,,,,,,,,,1812.2309235999983,1812.2415353999986,1812.2415353999986,1812.2415353999986,1812.2415353999986,1812.2415353999986,1812.2415353999986,1817.0726959999974,['r'],1,[4.819339600002422],[None],1817.0738144999978,1817.0872641000005,1817.0872641000005,1817.0872641000005,1818.9888095999977,5,1.8975576999982877,5,1.8975576999982877,,,,,,,,sub123_AB,001,2026-02-01_18h15.07.003,recognitionstage,,2025.1.1,60.21738475918487,2026-02-01 18h15.47.909907 +0530,
,,,32,32,0,17,frames\Vid17_BB_T.png,frames\Vid17_L.png,['l'],0,[5.199822200000199],[None],4,1.8645003000019642,,,,,0,32,32,16,1819.021063899998,,23,Male,Right handed,Normal,,,,,,,,,,,,,,,,,,,,,,,,,,,,,,,,,,,,,,,,1819.0144880999997,1819.021063899998,1819.021063899998,1819.021063899998,1819.021063899998,1819.021063899998,1819.021063899998,1824.2225204000006,['l'],0,[5.199822200000199],[None],1824.223385299998,1824.237271,1824.237271,1824.237271,1826.1048601999992,4,1.8645003000019642,4,1.8645003000019642,,,,,,,,sub123_AB,001,2026-02-01_18h15.07.003,recognitionstage,,2025.1.1,60.21738475918487,2026-02-01 18h15.47.909907 +0530,
,,,33,33,0,23,frames\Vid23_EM_T.png,frames\Vid23_L.png,['l'],1,[2.4984398999986297],[None],5,1.3311796999987564,,,,,0,33,33,22,1826.1384731999988,,23,Male,Right handed,Normal,,,,,,,,,,,,,,,,,,,,,,,,,,,,,,,,,,,,,,,,1826.1194859000007,1826.1384731999988,1826.1384731999988,1826.1384731999988,1826.1384731999988,1826.1384731999988,1826.1384731999988,1828.6389779,['l'],1,[2.4984398999986297],[None],1828.6399021999987,1828.6543096999976,1828.6543096999976,1828.6543096999976,1829.9882837999994,5,1.3311796999987564,5,1.3311796999987564,,,,,,,,sub123_AB,001,2026-02-01_18h15.07.003,recognitionstage,,2025.1.1,60.21738475918487,2026-02-01 18h15.47.909907 +0530,
,,,34,34,0,15,frames\Vid15_BB_T.png,frames\Vid15_L.png,['l'],1,[7.030327799999213],[None],1,1.798062600002595,,,,,0,34,34,14,1830.0547113999983,,23,Male,Right handed,Normal,,,,,,,,,,,,,,,,,,,,,,,,,,,,,,,,,,,,,,,,1830.0393757000002,1830.0547113999983,1830.0547113999983,1830.0547113999983,1830.0547113999983,1830.0547113999983,1830.0547113999983,1837.0897582999987,['l'],1,[7.030327799999213],[None],1837.0907376999985,1837.1040131999998,1837.1040131999998,1837.1040131999998,1838.9048227000003,1,1.798062600002595,1,1.798062600002595,,,,,,,,sub123_AB,001,2026-02-01_18h15.07.003,recognitionstage,,2025.1.1,60.21738475918487,2026-02-01 18h15.47.909907 +0530,
,,,35,35,0,9,frames\Vid9_EM_T.png,frames\Vid9_L.png,['l'],1,[3.232080900001165],[None],2,1.8971361000003526,,,,,0,35,35,8,1838.9571860999986,,23,Male,Right handed,Normal,,,,,,,,,,,,,,,,,,,,,,,,,,,,,,,,,,,,,,,,1838.9443469999987,1838.9571860999986,1838.9571860999986,1838.9571860999986,1838.9571860999986,1838.9571860999986,1838.9571860999986,1842.2068259999996,['l'],1,[3.232080900001165],[None],1842.2079437999982,1842.2201519999999,1842.2201519999999,1842.2201519999999,1844.1213542999994,2,1.8971361000003526,2,1.8971361000003526,,,,,,,,sub123_AB,001,2026-02-01_18h15.07.003,recognitionstage,,2025.1.1,60.21738475918487,2026-02-01 18h15.47.909907 +0530,
,,,36,36,0,33,frames\Vid33_BB_T.png,frames\Vid33_L.png,['r'],0,[4.408224200000404],[None],4,1.6143952999991598,,,,,0,36,36,32,1844.1567001999992,,23,Male,Right handed,Normal,,,,,,,,,,,,,,,,,,,,,,,,,,,,,,,,,,,,,,,,1844.131784700001,1844.1567001999992,1844.1567001999992,1844.1567001999992,1844.1567001999992,1844.1567001999992,1844.1567001999992,1848.5729159999992,['r'],0,[4.408224200000404],[None],1848.5736766999999,1848.5869538999996,1848.5869538999996,1848.5869538999996,1850.205142599998,4,1.6143952999991598,4,1.6143952999991598,,,,,,,,sub123_AB,001,2026-02-01_18h15.07.003,recognitionstage,,2025.1.1,60.21738475918487,2026-02-01 18h15.47.909907 +0530,
,,,37,37,0,18,frames\Vid18_EM_T.png,frames\Vid18_L.png,['r'],1,[3.6959467999986373],[None],3,1.5970984000014141,,,,,0,37,37,17,1850.2371259999982,,23,Male,Right handed,Normal,,,,,,,,,,,,,,,,,,,,,,,,,,,,,,,,,,,,,,,,1850.218670100001,1850.2371259999982,1850.2371259999982,1850.2371259999982,1850.2371259999982,1850.2371259999982,1850.2371259999982,1853.939693899998,['r'],1,[3.6959467999986373],[None],1853.9408999999996,1853.9540483,1853.9540483,1853.9540483,1855.5546879999984,3,1.5970984000014141,3,1.5970984000014141,,,,,,,,sub123_AB,001,2026-02-01_18h15.07.003,recognitionstage,,2025.1.1,60.21738475918487,2026-02-01 18h15.47.909907 +0530,
,,,38,38,0,31,frames\Vid31_EM_T.png,frames\Vid31_L.png,['l'],1,[2.8965201000028173],[None],5,1.4474229000006744,,,,,0,38,38,30,1855.572521199998,,23,Male,Right handed,Normal,,,,,,,,,,,,,,,,,,,,,,,,,,,,,,,,,,,,,,,,1855.5626996999981,1855.572521199998,1855.572521199998,1855.572521199998,1855.572521199998,1855.572521199998,1855.572521199998,1858.4731690999997,['l'],1,[2.8965201000028173],[None],1858.4743245000009,1858.5024254,1858.5024254,1858.5024254,1859.9382577999986,5,1.4474229000006744,5,1.4474229000006744,,,,,,,,sub123_AB,001,2026-02-01_18h15.07.003,recognitionstage,,2025.1.1,60.21738475918487,2026-02-01 18h15.47.909907 +0530,
,,,39,39,0,5,frames\Vid5_EM_T.png,frames\Vid5_L.png,['r'],1,[6.353483099999721],[None],3,2.1149440000008326,,,,,0,39,39,4,1859.987274099998,,23,Male,Right handed,Normal,,,,,,,,,,,,,,,,,,,,,,,,,,,,,,,,,,,,,,,,1859.9717813999978,1859.987274099998,1859.987274099998,1859.987274099998,1859.987274099998,1859.987274099998,1859.987274099998,1866.355843200001,['r'],1,[6.353483099999721],[None],1866.3568824999984,1866.3709911999995,1866.3709911999995,1866.3709911999995,1868.487615600001,3,2.1149440000008326,3,2.1149440000008326,,,,,,,,sub123_AB,001,2026-02-01_18h15.07.003,recognitionstage,,2025.1.1,60.21738475918487,2026-02-01 18h15.47.909907 +0530,
,,,,,,,,,,,,,,,,,,,,,,,,,23,Male,Right handed,Normal,,,,,,,,,,,,,,,,,,,,,,,,,,,,,,,,,,,,,,,,,,,,,,,,,,,,,,,,,,,,,1868.4877097000008,1868.5048503999988,1868.5048503999988,1875.987994099998,space,7.47602029999689,None,sub123_AB,001,2026-02-01_18h15.07.003,recognitionstage,,2025.1.1,60.21738475918487,2026-02-01 18h15.47.909907 +0530,
