path,duration,is_repeat,thisN,thisTrialN,thisRepN,movie_id,target_img,lure_img,resp.keys,resp.corr,resp.rt,resp.duration,conf_radio.response,conf_radio.rt,movie.thisRepN,movie.thisTrialN,movie.thisN,movie.thisIndex,recogloop.thisRepN,recogloop.thisTrialN,recogloop.thisN,recogloop.thisIndex,thisRow.t,notes,age,gender,handedness,vision,caffeine_2h,alcohol_smoke_12h,demographics.started,demographics.stopped,Instructions.started,text1.started,key_resp.started,Instructions.stopped,key_resp.keys,key_resp.rt,key_resp.duration,instruction_2.started,text2.started,key_resp_2.started,instruction_2.stopped,key_resp_2.keys,key_resp_2.rt,key_resp_2.duration,Videos.started,movie_2.started,vigilance_resp.started,movie_2.stopped,Videos.stopped,movie.vigilance_resp.keys,vigilance_pressed,vigilance_correct,ISI.started,text.started,text.stopped,ISI.stopped,movie.vigilance_resp.rt,movie.vigilance_resp.duration,recognition.started,text_4.started,key_resp_3.started,recognition.stopped,key_resp_3.keys,key_resp_3.rt,key_resp_3.duration,recognition_task.started,leftimage.started,rightimage.started,resp.started,frames_question.started,right_label.started,left_label.started,recognition_task.stopped,recogloop.resp.keys,recogloop.resp.corr,recogloop.resp.rt,recogloop.resp.duration,confidence.started,conf_text.started,conf_radio.started,conf_label.started,confidence.stopped,recogloop.conf_radio.response,recogloop.conf_radio.rt,confidence,confidence_rt,thank_you.started,text_6.started,key_resp_4.started,participant,session,date,expName,expVersion,psychopyVersion,frameRate,expStart,...101
,,,,,,,,,,,,,,,,,,,,,,,,,20,Female,Right handed,Corrected to normal,Caffeine consumed in last 2 hours?,Alcohol or smoking in last 12 hours?,0.015011399998911656,0.017484500000136904,,,,,,,,,,,,,,,,,,,,,,,,,,,,,,,,,,,,,,,,,,,,,,,,,,,,,,,,,,,,sub124_AB,001,2026-02-01_19h04.50.798,recognitionstage,,2025.1.1,59.83967753687589,2026-02-01 19h05.33.955643 +0530,
,,,,,,,,,,,,,,,,,,,,,,,,,20,Female,Right handed,Corrected to normal,,,,,0.01750539999920875,0.03435220000028494,0.03435220000028494,8.769431999997323,space,8.71897810000155,None,,,,,,,,,,,,,,,,,,,,,,,,,,,,,,,,,,,,,,,,,,,,,,,,,,,,,sub124_AB,001,2026-02-01_19h04.50.798,recognitionstage,,2025.1.1,59.83967753687589,2026-02-01 19h05.33.955643 +0530,
,,,,,,,,,,,,,,,,,,,,,,,,,20,Female,Right handed,Corrected to normal,,,,,,,,,,,,8.769479599999613,8.784655599996768,8.784655599996768,16.170057299998007,space,7.37683730000208,None,,,,,,,,,,,,,,,,,,,,,,,,,,,,,,,,,,,,,,,,,,,,,,sub124_AB,001,2026-02-01_19h04.50.798,recognitionstage,,2025.1.1,59.83967753687589,2026-02-01 19h05.33.955643 +0530,
abrupt_videos\abrupt_16.mp4,34,0,44,44,0,,,,,,,,,,0,44,44,17,,,,,1501.3331706999998,,20,Female,Right handed,Corrected to normal,,,,,,,,,,,,,,,,,,,1501.2863306,1501.3331706999998,1501.3331706999998,1535.7319346999975,1535.5895384999967,None,0,1,1535.7257393,1535.7319346999975,1538.2340629999999,1538.2190143999978,2.5627017000006163,None,1538.2190945999973,1538.2340629999999,1538.2340629999999,1567.1013542,space,28.854879899998195,None,,,,,,,,,,,,,,,,,,,,,,,,,sub124_AB,001,2026-02-01_19h04.50.798,recognitionstage,,2025.1.1,59.83967753687589,2026-02-01 19h05.33.955643 +0530,
,,,0,0,0,19,frames\Vid19_BB_T.png,frames\Vid19_L.png,['l'],1,[5.781267700000171],[None],5,6.331232699998509,,,,,0,0,0,18,1567.1319721,,20,Female,Right handed,Corrected to normal,,,,,,,,,,,,,,,,,,,,,,,,,,,,,,,,,,,,,,,,1567.1213151999982,1567.1319721,1567.1319721,1567.1319721,1567.1319721,1567.1319721,1567.1319721,1572.919312099999,['l'],1,[5.781267700000171],[None],1572.9199704999992,1572.9331121999967,1572.9331121999967,1572.9331121999967,1579.2671444999978,5,6.331232699998509,5,6.331232699998509,,,,sub124_AB,001,2026-02-01_19h04.50.798,recognitionstage,,2025.1.1,59.83967753687589,2026-02-01 19h05.33.955643 +0530,
,,,1,1,0,29,frames\Vid29_BB_T.png,frames\Vid29_L.png,['l'],1,[8.774241099999927],[None],5,1.68087309999828,,,,,0,1,1,28,1579.2986814999967,,20,Female,Right handed,Corrected to normal,,,,,,,,,,,,,,,,,,,,,,,,,,,,,,,,,,,,,,,,1579.2836099999986,1579.2986814999967,1579.2986814999967,1579.2986814999967,1579.2986814999967,1579.2986814999967,1579.2986814999967,1588.0855427999995,['l'],1,[8.774241099999927],[None],1588.0863922999997,1588.0997530999994,1588.0997530999994,1588.0997530999994,1589.7841343999971,5,1.68087309999828,5,1.68087309999828,,,,sub124_AB,001,2026-02-01_19h04.50.798,recognitionstage,,2025.1.1,59.83967753687589,2026-02-01 19h05.33.955643 +0530,
,,,2,2,0,9,frames\Vid9_EM_T.png,frames\Vid9_L.png,['l'],1,[4.511006299999281],[None],5,1.148681900001975,,,,,0,2,2,8,1589.833768499997,,20,Female,Right handed,Corrected to normal,,,,,,,,,,,,,,,,,,,,,,,,,,,,,,,,,,,,,,,,1589.8236399999987,1589.833768499997,1589.833768499997,1589.833768499997,1589.833768499997,1589.833768499997,1589.833768499997,1594.3514445,['l'],1,[4.511006299999281],[None],1594.3521299999993,1594.3665594999984,1594.3665594999984,1594.3665594999984,1595.5182590999975,5,1.148681900001975,5,1.148681900001975,,,,sub124_AB,001,2026-02-01_19h04.50.798,recognitionstage,,2025.1.1,59.83967753687589,2026-02-01 19h05.33.955643 +0530,
,,,3,3,0,18,frames\Vid18_EM_T.png,frames\Vid18_L.png,['l'],1,[4.9884753999976965],[None],5,1.948557100000471,,,,,0,3,3,17,1595.5485160999997,,20,Female,Right handed,Corrected to normal,,,,,,,,,,,,,,,,,,,,,,,,,,,,,,,,,,,,,,,,1595.5424175999979,1595.5485160999997,1595.5485160999997,1595.5485160999997,1595.5485160999997,1595.5485160999997,1595.5485160999997,1600.5517464999975,['l'],1,[4.9884753999976965],[None],1600.5526770999968,1600.5667198999981,1600.5667198999981,1600.5667198999981,1602.5174114000001,5,1.948557100000471,5,1.948557100000471,,,,sub124_AB,001,2026-02-01_19h04.50.798,recognitionstage,,2025.1.1,59.83967753687589,2026-02-01 19h05.33.955643 +0530,
,,,4,4,0,13,frames\Vid13_BB_T.png,frames\Vid13_L.png,['l'],0,[2.705841300001339],[None],5,1.6971780999992916,,,,,0,4,4,12,1602.567185099997,,20,Female,Right handed,Corrected to normal,,,,,,,,,,,,,,,,,,,,,,,,,,,,,,,,,,,,,,,,1602.5509826999987,1602.567185099997,1602.567185099997,1602.567185099997,1602.567185099997,1602.567185099997,1602.567185099997,1605.2865220999993,['l'],0,[2.705841300001339],[None],1605.2875478999995,1605.2998824999995,1605.2998824999995,1605.2998824999995,1607.0009379000003,5,1.6971780999992916,5,1.6971780999992916,,,,sub124_AB,001,2026-02-01_19h04.50.798,recognitionstage,,2025.1.1,59.83967753687589,2026-02-01 19h05.33.955643 +0530,
,,,5,5,0,12,frames\Vid12_EM_T.png,frames\Vid12_L.png,['r'],1,[2.731432799999311],[None],5,2.165265100000397,,,,,0,5,5,11,1607.0695479999995,,20,Female,Right handed,Corrected to normal,,,,,,,,,,,,,,,,,,,,,,,,,,,,,,,,,,,,,,,,1607.0460679999997,1607.0695479999995,1607.0695479999995,1607.0695479999995,1607.0695479999995,1607.0695479999995,1607.0695479999995,1609.8189751999998,['r'],1,[2.731432799999311],[None],1609.8199411999994,1609.8332609999998,1609.8332609999998,1609.8332609999998,1612.0008586999975,5,2.165265100000397,5,2.165265100000397,,,,sub124_AB,001,2026-02-01_19h04.50.798,recognitionstage,,2025.1.1,59.83967753687589,2026-02-01 19h05.33.955643 +0530,
,,,6,6,0,32,frames\Vid32_EM_T.png,frames\Vid32_L.png,['l'],1,[2.6847273000021232],[None],5,1.7316772999984096,,,,,0,6,6,31,1612.0361094,,20,Female,Right handed,Corrected to normal,,,,,,,,,,,,,,,,,,,,,,,,,,,,,,,,,,,,,,,,1612.012995899997,1612.0361094,1612.0361094,1612.0361094,1612.0361094,1612.0361094,1612.0361094,1614.7352804999973,['l'],1,[2.6847273000021232],[None],1614.7361683999989,1614.7501919999995,1614.7501919999995,1614.7501919999995,1616.4840945999968,5,1.7316772999984096,5,1.7316772999984096,,,,sub124_AB,001,2026-02-01_19h04.50.798,recognitionstage,,2025.1.1,59.83967753687589,2026-02-01 19h05.33.955643 +0530,
,,,7,7,0,5,frames\Vid5_EM_T.png,frames\Vid5_L.png,['l'],0,[9.867613399997936],[None],5,2.0648968999994395,,,,,0,7,7,4,1616.5333527999974,,20,Female,Right handed,Corrected to normal,,,,,,,,,,,,,,,,,,,,,,,,,,,,,,,,,,,,,,,,1616.5137935999992,1616.5333527999974,1616.5333527999974,1616.5333527999974,1616.5333527999974,1616.5333527999974,1616.5333527999974,1626.4017296999991,['l'],0,[9.867613399997936],[None],1626.402569599999,1626.4172876999983,1626.4172876999983,1626.4172876999983,1628.4841654999982,5,2.0648968999994395,5,2.0648968999994395,,,,sub124_AB,001,2026-02-01_19h04.50.798,recognitionstage,,2025.1.1,59.83967753687589,2026-02-01 19h05.33.955643 +0530,
,,,8,8,0,27,frames\Vid27_BB_T.png,frames\Vid27_L.png,['l'],1,[4.906536999998934],[None],5,2.0648535000000265,,,,,0,8,8,26,1628.5184422999992,,20,Female,Right handed,Corrected to normal,,,,,,,,,,,,,,,,,,,,,,,,,,,,,,,,,,,,,,,,1628.4943410999986,1628.5184422999992,1628.5184422999992,1628.5184422999992,1628.5184422999992,1628.5184422999992,1628.5184422999992,1633.4354912999988,['l'],1,[4.906536999998934],[None],1633.4363421999988,1633.4497432999997,1633.4497432999997,1633.4497432999997,1635.5175666999967,5,2.0648535000000265,5,2.0648535000000265,,,,sub124_AB,001,2026-02-01_19h04.50.798,recognitionstage,,2025.1.1,59.83967753687589,2026-02-01 19h05.33.955643 +0530,
,,,9,9,0,34,frames\Vid34_BB_T.png,frames\Vid34_L.png,['r'],1,[4.979456699998991],[None],5,1.2452560999990965,,,,,0,9,9,33,1635.5496019999991,,20,Female,Right handed,Corrected to normal,,,,,,,,,,,,,,,,,,,,,,,,,,,,,,,,,,,,,,,,1635.527764999999,1635.5496019999991,1635.5496019999991,1635.5496019999991,1635.5496019999991,1635.5496019999991,1635.5496019999991,1640.537447499999,['r'],1,[4.979456699998991],[None],1640.5391863999976,1640.5648701999999,1640.5648701999999,1640.5648701999999,1641.8010012999985,5,1.2452560999990965,5,1.2452560999990965,,,,sub124_AB,001,2026-02-01_19h04.50.798,recognitionstage,,2025.1.1,59.83967753687589,2026-02-01 19h05.33.955643 +0530,
,,,10,10,0,40,frames\Vid40_EM_T.png,frames\Vid40_L.png,['l'],1,[4.142554199999722],[None],5,1.4485069000002113,,,,,0,10,10,39,1641.8184518999988,,20,Female,Right handed,Corrected to normal,,,,,,,,,,,,,,,,,,,,,,,,,,,,,,,,,,,,,,,,1641.8086801999998,1641.8184518999988,1641.8184518999988,1641.8184518999988,1641.8184518999988,1641.8184518999988,1641.8184518999988,1645.9683767999995,['l'],1,[4.142554199999722],[None],1645.9693812999976,1645.9834691999968,1645.9834691999968,1645.9834691999968,1647.4344007,5,1.4485069000002113,5,1.4485069000002113,,,,sub124_AB,001,2026-02-01_19h04.50.798,recognitionstage,,2025.1.1,59.83967753687589,2026-02-01 19h05.33.955643 +0530,
,,,11,11,0,24,frames\Vid24_BB_T.png,frames\Vid24_L.png,['l'],1,[3.8306269999993674],[None],5,1.5306371999977273,,,,,0,11,11,23,1647.4663043999972,,20,Female,Right handed,Corrected to normal,,,,,,,,,,,,,,,,,,,,,,,,,,,,,,,,,,,,,,,,1647.4489692999996,1647.4663043999972,1647.4663043999972,1647.4663043999972,1647.4663043999972,1647.4663043999972,1647.4663043999972,1651.3021421999983,['l'],1,[3.8306269999993674],[None],1651.3034050999995,1651.3167245999975,1651.3167245999975,1651.3167245999975,1652.8514493999974,5,1.5306371999977273,5,1.5306371999977273,,,,sub124_AB,001,2026-02-01_19h04.50.798,recognitionstage,,2025.1.1,59.83967753687589,2026-02-01 19h05.33.955643 +0530,
,,,12,12,0,35,frames\Vid35_EM_T.png,frames\Vid35_L.png,['r'],1,[4.901191799999651],[None],5,1.7470229999998992,,,,,0,12,12,34,1652.8839504999996,,20,Female,Right handed,Corrected to normal,,,,,,,,,,,,,,,,,,,,,,,,,,,,,,,,,,,,,,,,1652.8629155999988,1652.8839504999996,1652.8839504999996,1652.8839504999996,1652.8839504999996,1652.8839504999996,1652.8839504999996,1657.802530099998,['r'],1,[4.901191799999651],[None],1657.8039613,1657.8163829999976,1657.8163829999976,1657.8163829999976,1659.5674554999969,5,1.7470229999998992,5,1.7470229999998992,,,,sub124_AB,001,2026-02-01_19h04.50.798,recognitionstage,,2025.1.1,59.83967753687589,2026-02-01 19h05.33.955643 +0530,
,,,13,13,0,15,frames\Vid15_BB_T.png,frames\Vid15_L.png,['r'],1,[13.231521599998814],[None],4,1.3658152000025439,,,,,0,13,13,14,1659.6333978999974,,20,Female,Right handed,Corrected to normal,,,,,,,,,,,,,,,,,,,,,,,,,,,,,,,,,,,,,,,,1659.6168217999984,1659.6333978999974,1659.6333978999974,1659.6333978999974,1659.6333978999974,1659.6333978999974,1659.6333978999974,1672.8685570999987,['r'],1,[13.231521599998814],[None],1672.8693805999974,1672.8834709000002,1672.8834709000002,1672.8834709000002,1674.2511524999973,4,1.3658152000025439,4,1.3658152000025439,,,,sub124_AB,001,2026-02-01_19h04.50.798,recognitionstage,,2025.1.1,59.83967753687589,2026-02-01 19h05.33.955643 +0530,
,,,14,14,0,28,frames\Vid28_EM_T.png,frames\Vid28_L.png,['r'],1,[3.0586581000025035],[None],5,1.2641350999983842,,,,,0,14,14,27,1674.2862037999985,,20,Female,Right handed,Corrected to normal,,,,,,,,,,,,,,,,,,,,,,,,,,,,,,,,,,,,,,,,1674.2637349999968,1674.2862037999985,1674.2862037999985,1674.2862037999985,1674.2862037999985,1674.2862037999985,1674.2862037999985,1677.3522879999982,['r'],1,[3.0586581000025035],[None],1677.3535637999994,1677.3669364999987,1677.3669364999987,1677.3669364999987,1678.6347744999985,5,1.2641350999983842,5,1.2641350999983842,,,,sub124_AB,001,2026-02-01_19h04.50.798,recognitionstage,,2025.1.1,59.83967753687589,2026-02-01 19h05.33.955643 +0530,
,,,15,15,0,23,frames\Vid23_EM_T.png,frames\Vid23_L.png,['l'],1,[8.366426900000079],[None],5,1.2639837999995507,,,,,0,15,15,22,1678.6663954999967,,20,Female,Right handed,Corrected to normal,,,,,,,,,,,,,,,,,,,,,,,,,,,,,,,,,,,,,,,,1678.6506345999987,1678.6663954999967,1678.6663954999967,1678.6663954999967,1678.6663954999967,1678.6663954999967,1678.6663954999967,1687.0358476999972,['l'],1,[8.366426900000079],[None],1687.0370516000003,1687.0505268999987,1687.0505268999987,1687.0505268999987,1688.3175377999978,5,1.2639837999995507,5,1.2639837999995507,,,,sub124_AB,001,2026-02-01_19h04.50.798,recognitionstage,,2025.1.1,59.83967753687589,2026-02-01 19h05.33.955643 +0530,
,,,16,16,0,1,frames\Vid1_EM_T.png,frames\Vid1_L.png,['l'],1,[3.912582699998893],[None],5,1.1323589000021457,,,,,0,16,16,0,1688.3841164999976,,20,Female,Right handed,Corrected to normal,,,,,,,,,,,,,,,,,,,,,,,,,,,,,,,,,,,,,,,,1688.3653750999983,1688.3841164999976,1688.3841164999976,1688.3841164999976,1688.3841164999976,1688.3841164999976,1688.3841164999976,1692.301347499997,['l'],1,[3.912582699998893],[None],1692.302056499997,1692.316544899997,1692.316544899997,1692.316544899997,1693.4505919999974,5,1.1323589000021457,5,1.1323589000021457,,,,sub124_AB,001,2026-02-01_19h04.50.798,recognitionstage,,2025.1.1,59.83967753687589,2026-02-01 19h05.33.955643 +0530,
,,,17,17,0,14,frames\Vid14_BB_T.png,frames\Vid14_L.png,['l'],1,[6.160791700000118],[None],4,1.0809974999974656,,,,,0,17,17,13,1693.5201116999997,,20,Female,Right handed,Corrected to normal,,,,,,,,,,,,,,,,,,,,,,,,,,,,,,,,,,,,,,,,1693.497199399997,1693.5201116999997,1693.5201116999997,1693.5201116999997,1693.5201116999997,1693.5201116999997,1693.5201116999997,1699.6858692999995,['l'],1,[6.160791700000118],[None],1699.6869206999982,1699.7005798999999,1699.7005798999999,1699.7005798999999,1700.783964299997,4,1.0809974999974656,4,1.0809974999974656,,,,sub124_AB,001,2026-02-01_19h04.50.798,recognitionstage,,2025.1.1,59.83967753687589,2026-02-01 19h05.33.955643 +0530,
,,,18,18,0,16,frames\Vid16_EM_T.png,frames\Vid16_L.png,['r'],1,[4.884552399998938],[None],4,2.1653689999984636,,,,,0,18,18,15,1700.8363742999973,,20,Female,Right handed,Corrected to normal,,,,,,,,,,,,,,,,,,,,,,,,,,,,,,,,,,,,,,,,1700.8254758000003,1700.8363742999973,1700.8363742999973,1700.8363742999973,1700.8363742999973,1700.8363742999973,1700.8363742999973,1705.7347078999992,['r'],1,[4.884552399998938],[None],1705.735515999997,1705.7501010999986,1705.7501010999986,1705.7501010999986,1707.9180226999997,4,2.1653689999984636,4,2.1653689999984636,,,,sub124_AB,001,2026-02-01_19h04.50.798,recognitionstage,,2025.1.1,59.83967753687589,2026-02-01 19h05.33.955643 +0530,
,,,19,19,0,33,frames\Vid33_BB_T.png,frames\Vid33_L.png,['r'],1,[3.7768034000000625],[None],5,1.1796982000014395,,,,,0,19,19,32,1707.9524297999997,,20,Female,Right handed,Corrected to normal,,,,,,,,,,,,,,,,,,,,,,,,,,,,,,,,,,,,,,,,1707.9279876999972,1707.9524297999997,1707.9524297999997,1707.9524297999997,1707.9524297999997,1707.9524297999997,1707.9524297999997,1711.7370605999968,['r'],1,[3.7768034000000625],[None],1711.7382389999984,1711.7646196999995,1711.7646196999995,1711.7646196999995,1712.9334887999976,5,1.1796982000014395,5,1.1796982000014395,,,,sub124_AB,001,2026-02-01_19h04.50.798,recognitionstage,,2025.1.1,59.83967753687589,2026-02-01 19h05.33.955643 +0530,
,,,20,20,0,7,frames\Vid7_EM_T.png,frames\Vid7_L.png,['l'],1,[7.257157300002291],[None],4,1.531339900000603,,,,,0,20,20,6,1712.9836594999979,,20,Female,Right handed,Corrected to normal,,,,,,,,,,,,,,,,,,,,,,,,,,,,,,,,,,,,,,,,1712.976390599997,1712.9836594999979,1712.9836594999979,1712.9836594999979,1712.9836594999979,1712.9836594999979,1712.9836594999979,1720.2516364999974,['l'],1,[7.257157300002291],[None],1720.2525117999976,1720.267111699999,1720.267111699999,1720.267111699999,1721.801166199999,4,1.531339900000603,4,1.531339900000603,,,,sub124_AB,001,2026-02-01_19h04.50.798,recognitionstage,,2025.1.1,59.83967753687589,2026-02-01 19h05.33.955643 +0530,
,,,21,21,0,25,frames\Vid25_BB_T.png,frames\Vid25_L.png,['r'],0,[10.00521309999749],[None],4,1.331729900000937,,,,,0,21,21,24,1721.8355798999983,,20,Female,Right handed,Corrected to normal,,,,,,,,,,,,,,,,,,,,,,,,,,,,,,,,,,,,,,,,1721.8120557000002,1721.8355798999983,1721.8355798999983,1721.8355798999983,1721.8355798999983,1721.8355798999983,1721.8355798999983,1731.8520407999968,['r'],0,[10.00521309999749],[None],1731.8532288999995,1731.8663067999987,1731.8663067999987,1731.8663067999987,1733.2008707999994,4,1.331729900000937,4,1.331729900000937,,,,sub124_AB,001,2026-02-01_19h04.50.798,recognitionstage,,2025.1.1,59.83967753687589,2026-02-01 19h05.33.955643 +0530,
,,,22,22,0,11,frames\Vid11_EM_T.png,frames\Vid11_L.png,['l'],1,[2.9826426999970863],[None],5,1.6980926999967778,,,,,0,22,22,10,1733.2504493999986,,20,Female,Right handed,Corrected to normal,,,,,,,,,,,,,,,,,,,,,,,,,,,,,,,,,,,,,,,,1733.2433801999978,1733.2504493999986,1733.2504493999986,1733.2504493999986,1733.2504493999986,1733.2504493999986,1733.2504493999986,1736.2357226999993,['l'],1,[2.9826426999970863],[None],1736.2365838999976,1736.2496296999998,1736.2496296999998,1736.2496296999998,1737.9510306999982,5,1.6980926999967778,5,1.6980926999967778,,,,sub124_AB,001,2026-02-01_19h04.50.798,recognitionstage,,2025.1.1,59.83967753687589,2026-02-01 19h05.33.955643 +0530,
,,,23,23,0,2,frames\Vid2_BB_T.png,frames\Vid2_L.png,['r'],1,[4.150482800003374],[None],5,1.648776900001394,,,,,0,23,23,1,1738.0024524,,20,Female,Right handed,Corrected to normal,,,,,,,,,,,,,,,,,,,,,,,,,,,,,,,,,,,,,,,,1737.9941029000001,1738.0024524,1738.0024524,1738.0024524,1738.0024524,1738.0024524,1738.0024524,1742.1681579999968,['r'],1,[4.150482800003374],[None],1742.1689117999995,1742.1834847999999,1742.1834847999999,1742.1834847999999,1743.8334782999991,5,1.648776900001394,5,1.648776900001394,,,,sub124_AB,001,2026-02-01_19h04.50.798,recognitionstage,,2025.1.1,59.83967753687589,2026-02-01 19h05.33.955643 +0530,
,,,24,24,0,6,frames\Vid6_BB_T.png,frames\Vid6_L.png,['l'],1,[3.202081299998099],[None],5,1.1971107999997912,,,,,0,24,24,5,1743.8867838999977,,20,Female,Right handed,Corrected to normal,,,,,,,,,,,,,,,,,,,,,,,,,,,,,,,,,,,,,,,,1743.8769681999984,1743.8867838999977,1743.8867838999977,1743.8867838999977,1743.8867838999977,1743.8867838999977,1743.8867838999977,1747.1025938999992,['l'],1,[3.202081299998099],[None],1747.1040729999986,1747.1163758000002,1747.1163758000002,1747.1163758000002,1748.317495299998,5,1.1971107999997912,5,1.1971107999997912,,,,sub124_AB,001,2026-02-01_19h04.50.798,recognitionstage,,2025.1.1,59.83967753687589,2026-02-01 19h05.33.955643 +0530,
,,,25,25,0,8,frames\Vid8_BB_T.png,frames\Vid8_L.png,['l'],1,[6.47066790000099],[None],5,0.9813027000018337,,,,,0,25,25,7,1748.370220599998,,20,Female,Right handed,Corrected to normal,,,,,,,,,,,,,,,,,,,,,,,,,,,,,,,,,,,,,,,,1748.3563588999968,1748.370220599998,1748.370220599998,1748.370220599998,1748.370220599998,1748.370220599998,1748.370220599998,1754.8519405999978,['l'],1,[6.47066790000099],[None],1754.8528587999972,1754.8663100999984,1754.8663100999984,1754.8663100999984,1755.851444,5,0.9813027000018337,5,0.9813027000018337,,,,sub124_AB,001,2026-02-01_19h04.50.798,recognitionstage,,2025.1.1,59.83967753687589,2026-02-01 19h05.33.955643 +0530,
,,,26,26,0,31,frames\Vid31_EM_T.png,frames\Vid31_L.png,['r'],1,[3.250993899997411],[None],5,1.231458800000837,,,,,0,26,26,30,1755.8858696999996,,20,Female,Right handed,Corrected to normal,,,,,,,,,,,,,,,,,,,,,,,,,,,,,,,,,,,,,,,,1755.8617369999993,1755.8858696999996,1755.8858696999996,1755.8858696999996,1755.8858696999996,1755.8858696999996,1755.8858696999996,1759.151613099999,['r'],1,[3.250993899997411],[None],1759.152511999997,1759.1667295999978,1759.1667295999978,1759.1667295999978,1760.4004487999991,5,1.231458800000837,5,1.231458800000837,,,,sub124_AB,001,2026-02-01_19h04.50.798,recognitionstage,,2025.1.1,59.83967753687589,2026-02-01 19h05.33.955643 +0530,
,,,27,27,0,17,frames\Vid17_BB_T.png,frames\Vid17_L.png,['r'],1,[5.255092600000353],[None],5,0.9983400000019174,,,,,0,27,27,16,1760.4336150999989,,20,Female,Right handed,Corrected to normal,,,,,,,,,,,,,,,,,,,,,,,,,,,,,,,,,,,,,,,,1760.4236423000002,1760.4336150999989,1760.4336150999989,1760.4336150999989,1760.4336150999989,1760.4336150999989,1760.4336150999989,1765.7015374000002,['r'],1,[5.255092600000353],[None],1765.7023169999993,1765.716892299999,1765.716892299999,1765.716892299999,1766.7179655,5,0.9983400000019174,5,0.9983400000019174,,,,sub124_AB,001,2026-02-01_19h04.50.798,recognitionstage,,2025.1.1,59.83967753687589,2026-02-01 19h05.33.955643 +0530,
,,,28,28,0,38,frames\Vid38_EM_T.png,frames\Vid38_L.png,['l'],1,[3.4739730000001146],[None],5,1.0975976000008814,,,,,0,28,28,37,1766.750924699998,,20,Female,Right handed,Corrected to normal,,,,,,,,,,,,,,,,,,,,,,,,,,,,,,,,,,,,,,,,1766.7287565999977,1766.750924699998,1766.750924699998,1766.750924699998,1766.750924699998,1766.750924699998,1766.750924699998,1770.2359800999984,['l'],1,[3.4739730000001146],[None],1770.2368615999985,1770.2496498999972,1770.2496498999972,1770.2496498999972,1771.3506651999996,5,1.0975976000008814,5,1.0975976000008814,,,,sub124_AB,001,2026-02-01_19h04.50.798,recognitionstage,,2025.1.1,59.83967753687589,2026-02-01 19h05.33.955643 +0530,
,,,29,29,0,4,frames\Vid4_EM_T.png,frames\Vid4_L.png,['r'],1,[9.471813999996812],[None],5,2.9145629000013287,,,,,0,29,29,3,1771.4170258999984,,20,Female,Right handed,Corrected to normal,,,,,,,,,,,,,,,,,,,,,,,,,,,,,,,,,,,,,,,,1771.3976349999975,1771.4170258999984,1771.4170258999984,1771.4170258999984,1771.4170258999984,1771.4170258999984,1771.4170258999984,1780.9019008999967,['r'],1,[9.471813999996812],[None],1780.9027395999983,1780.916566699998,1780.916566699998,1780.916566699998,1783.8341275999992,5,2.9145629000013287,5,2.9145629000013287,,,,sub124_AB,001,2026-02-01_19h04.50.798,recognitionstage,,2025.1.1,59.83967753687589,2026-02-01 19h05.33.955643 +0530,
,,,30,30,0,22,frames\Vid22_EM_T.png,frames\Vid22_L.png,['r'],1,[4.835510600001726],[None],5,1.6151942999968014,,,,,0,30,30,21,1783.8692028999976,,20,Female,Right handed,Corrected to normal,,,,,,,,,,,,,,,,,,,,,,,,,,,,,,,,,,,,,,,,1783.8466579999986,1783.8692028999976,1783.8692028999976,1783.8692028999976,1783.8692028999976,1783.8692028999976,1783.8692028999976,1788.718680099999,['r'],1,[4.835510600001726],[None],1788.7195046999987,1788.7330396999969,1788.7330396999969,1788.7330396999969,1790.3511538999992,5,1.6151942999968014,5,1.6151942999968014,,,,sub124_AB,001,2026-02-01_19h04.50.798,recognitionstage,,2025.1.1,59.83967753687589,2026-02-01 19h05.33.955643 +0530,
,,,31,31,0,10,frames\Vid10_BB_T.png,frames\Vid10_L.png,['l'],1,[3.960326399999758],[None],5,1.248596000001271,,,,,0,31,31,9,1790.4005198999985,,20,Female,Right handed,Corrected to normal,,,,,,,,,,,,,,,,,,,,,,,,,,,,,,,,,,,,,,,,1790.3930492,1790.4005198999985,1790.4005198999985,1790.4005198999985,1790.4005198999985,1790.4005198999985,1790.4005198999985,1794.3684154000002,['l'],1,[3.960326399999758],[None],1794.369282399999,1794.3835314999997,1794.3835314999997,1794.3835314999997,1795.6338579999974,5,1.248596000001271,5,1.248596000001271,,,,sub124_AB,001,2026-02-01_19h04.50.798,recognitionstage,,2025.1.1,59.83967753687589,2026-02-01 19h05.33.955643 +0530,
,,,32,32,0,21,frames\Vid21_BB_T.png,frames\Vid21_L.png,['r'],1,[6.275385299999471],[None],5,1.2968216999979632,,,,,0,32,32,20,1795.6695728999985,,20,Female,Right handed,Corrected to normal,,,,,,,,,,,,,,,,,,,,,,,,,,,,,,,,,,,,,,,,1795.6461311999992,1795.6695728999985,1795.6695728999985,1795.6695728999985,1795.6695728999985,1795.6695728999985,1795.6695728999985,1801.9525369999974,['r'],1,[6.275385299999471],[None],1801.9539264999985,1801.9812055999973,1801.9812055999973,1801.9812055999973,1803.2678315999983,5,1.2968216999979632,5,1.2968216999979632,,,,sub124_AB,001,2026-02-01_19h04.50.798,recognitionstage,,2025.1.1,59.83967753687589,2026-02-01 19h05.33.955643 +0530,
,,,33,33,0,37,frames\Vid37_BB_T.png,frames\Vid37_L.png,['r'],1,[3.43701190000138],[None],5,0.9306741000000329,,,,,0,33,33,36,1803.2998209999969,,20,Female,Right handed,Corrected to normal,,,,,,,,,,,,,,,,,,,,,,,,,,,,,,,,,,,,,,,,1803.2801781999988,1803.2998209999969,1803.2998209999969,1803.2998209999969,1803.2998209999969,1803.2998209999969,1803.2998209999969,1806.7525298999972,['r'],1,[3.43701190000138],[None],1806.7537704999995,1806.7662573999987,1806.7662573999987,1806.7662573999987,1807.7004566999967,5,0.9306741000000329,5,0.9306741000000329,,,,sub124_AB,001,2026-02-01_19h04.50.798,recognitionstage,,2025.1.1,59.83967753687589,2026-02-01 19h05.33.955643 +0530,
,,,34,34,0,39,frames\Vid39_BB_T.png,frames\Vid39_L.png,['l'],1,[7.57010420000006],[None],5,1.1651658000009775,,,,,0,34,34,38,1807.718694799998,,20,Female,Right handed,Corrected to normal,,,,,,,,,,,,,,,,,,,,,,,,,,,,,,,,,,,,,,,,1807.7092899999989,1807.718694799998,1807.718694799998,1807.718694799998,1807.718694799998,1807.718694799998,1807.718694799998,1815.3018651999992,['l'],1,[7.57010420000006],[None],1815.3029596999986,1815.3167576999986,1815.3167576999986,1815.3167576999986,1816.484563099999,5,1.1651658000009775,5,1.1651658000009775,,,,sub124_AB,001,2026-02-01_19h04.50.798,recognitionstage,,2025.1.1,59.83967753687589,2026-02-01 19h05.33.955643 +0530,
,,,35,35,0,3,frames\Vid3_BB_T.png,frames\Vid3_L.png,['r'],1,[4.018944200000988],[None],5,0.8476020000016433,,,,,0,35,35,2,1816.5337949999994,,20,Female,Right handed,Corrected to normal,,,,,,,,,,,,,,,,,,,,,,,,,,,,,,,,,,,,,,,,1816.5237073999997,1816.5337949999994,1816.5337949999994,1816.5337949999994,1816.5337949999994,1816.5337949999994,1816.5337949999994,1820.568733,['r'],1,[4.018944200000988],[None],1820.570079099998,1820.583615399999,1820.583615399999,1820.583615399999,1821.4335525999995,5,0.8476020000016433,5,0.8476020000016433,,,,sub124_AB,001,2026-02-01_19h04.50.798,recognitionstage,,2025.1.1,59.83967753687589,2026-02-01 19h05.33.955643 +0530,
,,,36,36,0,26,frames\Vid26_EM_T.png,frames\Vid26_L.png,['r'],1,[6.3958297000026505],[None],5,0.815823899996758,,,,,0,36,36,25,1821.4691079999975,,20,Female,Right handed,Corrected to normal,,,,,,,,,,,,,,,,,,,,,,,,,,,,,,,,,,,,,,,,1821.4474921,1821.4691079999975,1821.4691079999975,1821.4691079999975,1821.4691079999975,1821.4691079999975,1821.4691079999975,1827.868115899997,['r'],1,[6.3958297000026505],[None],1827.8688227999992,1827.8834191999995,1827.8834191999995,1827.8834191999995,1828.7001345999997,5,0.815823899996758,5,0.815823899996758,,,,sub124_AB,001,2026-02-01_19h04.50.798,recognitionstage,,2025.1.1,59.83967753687589,2026-02-01 19h05.33.955643 +0530,
,,,37,37,0,30,frames\Vid30_EM_T.png,frames\Vid30_L.png,['r'],1,[3.6580753000016557],[None],5,0.6984338000002026,,,,,0,37,37,29,1828.7187616999981,,20,Female,Right handed,Corrected to normal,,,,,,,,,,,,,,,,,,,,,,,,,,,,,,,,,,,,,,,,1828.7087862999979,1828.7187616999981,1828.7187616999981,1828.7187616999981,1828.7187616999981,1828.7187616999981,1828.7187616999981,1832.385602899998,['r'],1,[3.6580753000016557],[None],1832.3865882999999,1832.3995525999999,1832.3995525999999,1832.3995525999999,1833.1005404999996,5,0.6984338000002026,5,0.6984338000002026,,,,sub124_AB,001,2026-02-01_19h04.50.798,recognitionstage,,2025.1.1,59.83967753687589,2026-02-01 19h05.33.955643 +0530,
,,,38,38,0,20,frames\Vid20_EM_T.png,frames\Vid20_L.png,['l'],1,[3.4424398000010115],[None],5,0.7141744000000472,,,,,0,38,38,19,1833.1185124999975,,20,Female,Right handed,Corrected to normal,,,,,,,,,,,,,,,,,,,,,,,,,,,,,,,,,,,,,,,,1833.1067576999994,1833.1185124999975,1833.1185124999975,1833.1185124999975,1833.1185124999975,1833.1185124999975,1833.1185124999975,1836.5691888999972,['l'],1,[3.4424398000010115],[None],1836.5705110999988,1836.5834077,1836.5834077,1836.5834077,1837.3009248999988,5,0.7141744000000472,5,0.7141744000000472,,,,sub124_AB,001,2026-02-01_19h04.50.798,recognitionstage,,2025.1.1,59.83967753687589,2026-02-01 19h05.33.955643 +0530,
,,,39,39,0,36,frames\Vid36_BB_T.png,frames\Vid36_L.png,['l'],1,[6.060173999998369],[None],3,1.5313362999986566,,,,,0,39,39,35,1837.3327469999967,,20,Female,Right handed,Corrected to normal,,,,,,,,,,,,,,,,,,,,,,,,,,,,,,,,,,,,,,,,1837.314277399997,1837.3327469999967,1837.3327469999967,1837.3327469999967,1837.3327469999967,1837.3327469999967,1837.3327469999967,1843.402266899997,['l'],1,[6.060173999998369],[None],1843.403403299999,1843.4167137999975,1843.4167137999975,1843.4167137999975,1844.9508033999991,3,1.5313362999986566,3,1.5313362999986566,,,,sub124_AB,001,2026-02-01_19h04.50.798,recognitionstage,,2025.1.1,59.83967753687589,2026-02-01 19h05.33.955643 +0530,
,,,,,,,,,,,,,,,,,,,,,,,,,20,Female,Right handed,Corrected to normal,,,,,,,,,,,,,,,,,,,,,,,,,,,,,,,,,,,,,,,,,,,,,,,,,,,,,,,,,,,,,1844.9508996999975,1844.9669458999997,1844.9669458999997,,,,,,,,,
