path,duration,is_repeat,thisN,thisTrialN,thisRepN,movie_id,target_img,lure_img,resp.keys,resp.corr,resp.rt,resp.duration,conf_radio.response,conf_radio.rt,movie.thisRepN,movie.thisTrialN,movie.thisN,movie.thisIndex,recogloop.thisRepN,recogloop.thisTrialN,recogloop.thisN,recogloop.thisIndex,thisRow.t,notes,age,gender,handedness,vision,caffeine_2h,alcohol_smoke_12h,demographics.started,demographics.stopped,Instructions.started,text1.started,key_resp.started,Instructions.stopped,key_resp.keys,key_resp.rt,key_resp.duration,instruction_2.started,text2.started,key_resp_2.started,instruction_2.stopped,key_resp_2.keys,key_resp_2.rt,key_resp_2.duration,Videos.started,movie_2.started,vigilance_resp.started,movie_2.stopped,Videos.stopped,movie.vigilance_resp.keys,vigilance_pressed,vigilance_correct,ISI.started,text.started,ISI.stopped,text.stopped,movie.vigilance_resp.rt,movie.vigilance_resp.duration,recognition.started,text_4.started,key_resp_3.started,recognition.stopped,key_resp_3.keys,key_resp_3.rt,key_resp_3.duration,recognition_task.started,leftimage.started,rightimage.started,resp.started,frames_question.started,right_label.started,left_label.started,recognition_task.stopped,recogloop.resp.keys,recogloop.resp.corr,recogloop.resp.rt,recogloop.resp.duration,confidence.started,conf_text.started,conf_radio.started,conf_label.started,confidence.stopped,recogloop.conf_radio.response,recogloop.conf_radio.rt,confidence,confidence_rt,thank_you.started,text_6.started,key_resp_4.started,thank_you.stopped,key_resp_4.keys,participant,session,date,expName,expVersion,psychopyVersion,frameRate,expStart,...103
,,,,,,,,,,,,,,,,,,,,,,,,,20,Female,Right handed,Normal,Caffeine consumed in last 2 hours?,Alcohol or smoking in last 12 hours?,0.011058000003686175,0.013601400016341358,,,,,,,,,,,,,,,,,,,,,,,,,,,,,,,,,,,,,,,,,,,,,,,,,,,,,,,,,,,,,,sub157_AB,001,2026-02-03_17h10.29.374,recognitionstage,,2025.1.1,59.9602703225156,2026-02-03 17h11.34.191414 +0530,
,,,,,,,,,,,,,,,,,,,,,,,,,20,Female,Right handed,Normal,,,,,0.013623200007714331,0.03053760001785122,0.03053760001785122,14.398684800020419,space,14.35482619999675,None,,,,,,,,,,,,,,,,,,,,,,,,,,,,,,,,,,,,,,,,,,,,,,,,,,,,,,,sub157_AB,001,2026-02-03_17h10.29.374,recognitionstage,,2025.1.1,59.9602703225156,2026-02-03 17h11.34.191414 +0530,
,,,,,,,,,,,,,,,,,,,,,,,,,20,Female,Right handed,Normal,,,,,,,,,,,,14.398734800022794,14.413824600022053,14.413824600022053,22.0151800000167,space,7.595759600022575,None,,,,,,,,,,,,,,,,,,,,,,,,,,,,,,,,,,,,,,,,,,,,,,,,sub157_AB,001,2026-02-03_17h10.29.374,recognitionstage,,2025.1.1,59.9602703225156,2026-02-03 17h11.34.191414 +0530,
Trimmed_videos/natural_21.mp4,39,0,44,44,0,,,,,,,,,,0,44,44,23,,,,,1529.7295315000229,,20,Female,Right handed,Normal,,,,,,,,,,,,,,,,,,,1529.6872237000207,1529.7295315000229,1529.7295315000229,1569.6116101000225,1569.4566387000086,None,0,1,1569.5923414000135,1569.6116101000225,1572.0986060000141,1506.06225420002,2.5787469999922905,None,1572.098687700025,1572.113228800008,1572.113228800008,1604.8472633000056,space,32.71988859999692,None,,,,,,,,,,,,,,,,,,,,,,,,,,,sub157_AB,001,2026-02-03_17h10.29.374,recognitionstage,,2025.1.1,59.9602703225156,2026-02-03 17h11.34.191414 +0530,
,,,0,0,0,5,frames\Vid5_EM_T.png,frames\Vid5_L.png,['l'],0,[5.978268600010779],[None],3,9.29831589999958,,,,,0,0,0,4,1604.8945429000014,,20,Female,Right handed,Normal,,,,,,,,,,,,,,,,,,,,,,,,,,,,,,,,,,,,,,,,1604.883959400002,1604.8945429000014,1604.8945429000014,1604.8945429000014,1604.8945429000014,1604.8945429000014,1604.8945429000014,1610.8812597000215,['l'],0,[5.978268600010779],[None],1610.882215300022,1610.8956710000057,1610.8956710000057,1610.8956710000057,1620.1968588000163,3,9.29831589999958,3,9.29831589999958,,,,,,sub157_AB,001,2026-02-03_17h10.29.374,recognitionstage,,2025.1.1,59.9602703225156,2026-02-03 17h11.34.191414 +0530,
,,,1,1,0,15,frames\Vid15_BB_T.png,frames\Vid15_L.png,['l'],1,[5.418688300007489],[None],4,3.9133363000000827,,,,,0,1,1,14,1620.2782445000194,,20,Female,Right handed,Normal,,,,,,,,,,,,,,,,,,,,,,,,,,,,,,,,,,,,,,,,1620.2609640000155,1620.2782445000194,1620.2782445000194,1620.2782445000194,1620.2782445000194,1620.2782445000194,1620.2782445000194,1625.6995793000096,['l'],1,[5.418688300007489],[None],1625.700722700014,1625.727170099999,1625.727170099999,1625.727170099999,1629.629917800019,4,3.9133363000000827,4,3.9133363000000827,,,,,,sub157_AB,001,2026-02-03_17h10.29.374,recognitionstage,,2025.1.1,59.9602703225156,2026-02-03 17h11.34.191414 +0530,
,,,2,2,0,37,frames\Vid37_BB_T.png,frames\Vid37_L.png,['l'],1,[3.367468500015093],[None],4,2.23158059999696,,,,,0,2,2,36,1629.6653318000026,,20,Female,Right handed,Normal,,,,,,,,,,,,,,,,,,,,,,,,,,,,,,,,,,,,,,,,1629.6428481000185,1629.6653318000026,1629.6653318000026,1629.6653318000026,1629.6653318000026,1629.6653318000026,1629.6653318000026,1633.0486181000015,['l'],1,[3.367468500015093],[None],1633.0497481000202,1633.062406800018,1633.062406800018,1633.062406800018,1635.2959286000114,4,2.23158059999696,4,2.23158059999696,,,,,,sub157_AB,001,2026-02-03_17h10.29.374,recognitionstage,,2025.1.1,59.9602703225156,2026-02-03 17h11.34.191414 +0530,
,,,3,3,0,1,frames\Vid1_EM_T.png,frames\Vid1_L.png,['r'],1,[5.765154799999436],[None],5,2.1496267000038642,,,,,0,3,3,0,1635.363699300011,,20,Female,Right handed,Normal,,,,,,,,,,,,,,,,,,,,,,,,,,,,,,,,,,,,,,,,1635.3404397999984,1635.363699300011,1635.363699300011,1635.363699300011,1635.363699300011,1635.363699300011,1635.363699300011,1641.1309083000233,['r'],1,[5.765154799999436],[None],1641.131770900014,1641.1460886000132,1641.1460886000132,1641.1460886000132,1643.296386800008,5,2.1496267000038642,5,2.1496267000038642,,,,,,sub157_AB,001,2026-02-03_17h10.29.374,recognitionstage,,2025.1.1,59.9602703225156,2026-02-03 17h11.34.191414 +0530,
,,,4,4,0,28,frames\Vid28_EM_T.png,frames\Vid28_L.png,['r'],1,[4.788634000025922],[None],5,1.3322236000094563,,,,,0,4,4,27,1643.3321198000049,,20,Female,Right handed,Normal,,,,,,,,,,,,,,,,,,,,,,,,,,,,,,,,,,,,,,,,1643.3072501000133,1643.3321198000049,1643.3321198000049,1643.3321198000049,1643.3321198000049,1643.3321198000049,1643.3321198000049,1648.130411799997,['r'],1,[4.788634000025922],[None],1648.1311624000082,1648.1469617999974,1648.1469617999974,1648.1469617999974,1649.4806599000003,5,1.3322236000094563,5,1.3322236000094563,,,,,,sub157_AB,001,2026-02-03_17h10.29.374,recognitionstage,,2025.1.1,59.9602703225156,2026-02-03 17h11.34.191414 +0530,
,,,5,5,0,2,frames\Vid2_BB_T.png,frames\Vid2_L.png,['l'],1,[3.7590882999938913],[None],5,1.7480416000180412,,,,,0,5,5,1,1649.5298062000074,,20,Female,Right handed,Normal,,,,,,,,,,,,,,,,,,,,,,,,,,,,,,,,,,,,,,,,1649.5188237000257,1649.5298062000074,1649.5298062000074,1649.5298062000074,1649.5298062000074,1649.5298062000074,1649.5298062000074,1653.2978597000183,['l'],1,[3.7590882999938913],[None],1653.2988804000197,1653.3127509000187,1653.3127509000187,1653.3127509000187,1655.0627285000228,5,1.7480416000180412,5,1.7480416000180412,,,,,,sub157_AB,001,2026-02-03_17h10.29.374,recognitionstage,,2025.1.1,59.9602703225156,2026-02-03 17h11.34.191414 +0530,
,,,6,6,0,19,frames\Vid19_BB_T.png,frames\Vid19_L.png,['l'],1,[2.446551000000909],[None],5,1.7467707000032533,,,,,0,6,6,18,1655.0987808000064,,20,Female,Right handed,Normal,,,,,,,,,,,,,,,,,,,,,,,,,,,,,,,,,,,,,,,,1655.0739383000182,1655.0987808000064,1655.0987808000064,1655.0987808000064,1655.0987808000064,1655.0987808000064,1655.0987808000064,1657.5493695000187,['l'],1,[2.446551000000909],[None],1657.5503702000133,1657.5774611000088,1657.5774611000088,1657.5774611000088,1659.312842400017,5,1.7467707000032533,5,1.7467707000032533,,,,,,sub157_AB,001,2026-02-03_17h10.29.374,recognitionstage,,2025.1.1,59.9602703225156,2026-02-03 17h11.34.191414 +0530,
,,,7,7,0,38,frames\Vid38_EM_T.png,frames\Vid38_L.png,['l'],1,[11.253219899983378],[None],5,2.182425000006333,,,,,0,7,7,37,1659.3315143000218,,20,Female,Right handed,Normal,,,,,,,,,,,,,,,,,,,,,,,,,,,,,,,,,,,,,,,,1659.3226219000062,1659.3315143000218,1659.3315143000218,1659.3315143000218,1659.3315143000218,1659.3315143000218,1659.3315143000218,1670.597682599997,['l'],1,[11.253219899983378],[None],1670.5984770000214,1670.612205500016,1670.612205500016,1670.612205500016,1672.7969341000135,5,2.182425000006333,5,2.182425000006333,,,,,,sub157_AB,001,2026-02-03_17h10.29.374,recognitionstage,,2025.1.1,59.9602703225156,2026-02-03 17h11.34.191414 +0530,
,,,8,8,0,33,frames\Vid33_BB_T.png,frames\Vid33_L.png,['l'],1,[5.698609199986095],[None],5,1.3651768999989145,,,,,0,8,8,32,1672.8141784000036,,20,Female,Right handed,Normal,,,,,,,,,,,,,,,,,,,,,,,,,,,,,,,,,,,,,,,,1672.8061891999969,1672.8141784000036,1672.8141784000036,1672.8141784000036,1672.8141784000036,1672.8141784000036,1672.8141784000036,1678.5139761000173,['l'],1,[5.698609199986095],[None],1678.5147823000152,1678.5298384000198,1678.5298384000198,1678.5298384000198,1679.8969411000144,5,1.3651768999989145,5,1.3651768999989145,,,,,,sub157_AB,001,2026-02-03_17h10.29.374,recognitionstage,,2025.1.1,59.9602703225156,2026-02-03 17h11.34.191414 +0530,
,,,9,9,0,32,frames\Vid32_EM_T.png,frames\Vid32_L.png,['r'],1,[2.38356090002344],[None],5,0.9979661999968812,,,,,0,9,9,31,1679.9292471000226,,20,Female,Right handed,Normal,,,,,,,,,,,,,,,,,,,,,,,,,,,,,,,,,,,,,,,,1679.9101813000161,1679.9292471000226,1679.9292471000226,1679.9292471000226,1679.9292471000226,1679.9292471000226,1679.9292471000226,1682.3152266000106,['r'],1,[2.38356090002344],[None],1682.3160415000166,1682.3291030999972,1682.3291030999972,1682.3291030999972,1683.3295377000177,5,0.9979661999968812,5,0.9979661999968812,,,,,,sub157_AB,001,2026-02-03_17h10.29.374,recognitionstage,,2025.1.1,59.9602703225156,2026-02-03 17h11.34.191414 +0530,
,,,10,10,0,6,frames\Vid6_BB_T.png,frames\Vid6_L.png,['l'],1,[3.30071000001044],[None],5,1.3646377999975812,,,,,0,10,10,5,1683.380110900005,,20,Female,Right handed,Normal,,,,,,,,,,,,,,,,,,,,,,,,,,,,,,,,,,,,,,,,1683.3718318000028,1683.380110900005,1683.380110900005,1683.380110900005,1683.380110900005,1683.380110900005,1683.380110900005,1686.6987998000113,['l'],1,[3.30071000001044],[None],1686.699763200013,1686.7123901000014,1686.7123901000014,1686.7123901000014,1688.0797039000026,5,1.3646377999975812,5,1.3646377999975812,,,,,,sub157_AB,001,2026-02-03_17h10.29.374,recognitionstage,,2025.1.1,59.9602703225156,2026-02-03 17h11.34.191414 +0530,
,,,11,11,0,13,frames\Vid13_BB_T.png,frames\Vid13_L.png,['l'],0,[10.267873600008897],[None],2,1.9307417999953032,,,,,0,11,11,12,1688.132829500013,,20,Female,Right handed,Normal,,,,,,,,,,,,,,,,,,,,,,,,,,,,,,,,,,,,,,,,1688.1163954000222,1688.132829500013,1688.132829500013,1688.132829500013,1688.132829500013,1688.132829500013,1688.132829500013,1698.4151453000086,['l'],0,[10.267873600008897],[None],1698.4160677000182,1698.4292484000034,1698.4292484000034,1698.4292484000034,1700.364270400023,2,1.9307417999953032,2,1.9307417999953032,,,,,,sub157_AB,001,2026-02-03_17h10.29.374,recognitionstage,,2025.1.1,59.9602703225156,2026-02-03 17h11.34.191414 +0530,
,,,12,12,0,12,frames\Vid12_EM_T.png,frames\Vid12_L.png,['l'],1,[2.376506000000518],[None],5,1.746726800018223,,,,,0,12,12,11,1700.4324056000041,,20,Female,Right handed,Normal,,,,,,,,,,,,,,,,,,,,,,,,,,,,,,,,,,,,,,,,1700.409371900023,1700.4324056000041,1700.4324056000041,1700.4324056000041,1700.4324056000041,1700.4324056000041,1700.4324056000041,1702.816146199999,['l'],1,[2.376506000000518],[None],1702.8172364000056,1702.8439986000012,1702.8439986000012,1702.8439986000012,1704.580461400008,5,1.746726800018223,5,1.746726800018223,,,,,,sub157_AB,001,2026-02-03_17h10.29.374,recognitionstage,,2025.1.1,59.9602703225156,2026-02-03 17h11.34.191414 +0530,
,,,13,13,0,27,frames\Vid27_BB_T.png,frames\Vid27_L.png,['r'],0,[7.705452499998501],[None],3,1.281040599977132,,,,,0,13,13,26,1704.6152726,,20,Female,Right handed,Normal,,,,,,,,,,,,,,,,,,,,,,,,,,,,,,,,,,,,,,,,1704.5904178000055,1704.6152726,1704.6152726,1704.6152726,1704.6152726,1704.6152726,1704.6152726,1712.331264700013,['r'],0,[7.705452499998501],[None],1712.332114800025,1712.3457025000243,1712.3457025000243,1712.3457025000243,1713.6299122000055,3,1.281040599977132,3,1.281040599977132,,,,,,sub157_AB,001,2026-02-03_17h10.29.374,recognitionstage,,2025.1.1,59.9602703225156,2026-02-03 17h11.34.191414 +0530,
,,,14,14,0,25,frames\Vid25_BB_T.png,frames\Vid25_L.png,['l'],0,[2.033791800000472],[None],5,2.0648695999989286,,,,,0,14,14,24,1713.6474694000208,,20,Female,Right handed,Normal,,,,,,,,,,,,,,,,,,,,,,,,,,,,,,,,,,,,,,,,1713.6395281000005,1713.6474694000208,1713.6474694000208,1713.6474694000208,1713.6474694000208,1713.6474694000208,1713.6474694000208,1715.69837920001,['l'],0,[2.033791800000472],[None],1715.6992267000023,1715.7123046000197,1715.7123046000197,1715.7123046000197,1717.7795759,5,2.0648695999989286,5,2.0648695999989286,,,,,,sub157_AB,001,2026-02-03_17h10.29.374,recognitionstage,,2025.1.1,59.9602703225156,2026-02-03 17h11.34.191414 +0530,
,,,15,15,0,23,frames\Vid23_EM_T.png,frames\Vid23_L.png,['r'],1,[6.316336099989712],[None],2,1.7802973999932874,,,,,0,15,15,22,1717.8124161000014,,20,Female,Right handed,Normal,,,,,,,,,,,,,,,,,,,,,,,,,,,,,,,,,,,,,,,,1717.7942060000205,1717.8124161000014,1717.8124161000014,1717.8124161000014,1717.8124161000014,1717.8124161000014,1717.8124161000014,1724.1322045999987,['r'],1,[6.316336099989712],[None],1724.1331318000157,1724.1456113000168,1724.1456113000168,1724.1456113000168,1725.9299443000054,2,1.7802973999932874,2,1.7802973999932874,,,,,,sub157_AB,001,2026-02-03_17h10.29.374,recognitionstage,,2025.1.1,59.9602703225156,2026-02-03 17h11.34.191414 +0530,
,,,16,16,0,3,frames\Vid3_BB_T.png,frames\Vid3_L.png,['r'],0,[9.23689739999827],[None],3,2.814411300001666,,,,,0,16,16,2,1725.97977060001,,20,Female,Right handed,Normal,,,,,,,,,,,,,,,,,,,,,,,,,,,,,,,,,,,,,,,,1725.9680146000173,1725.97977060001,1725.97977060001,1725.97977060001,1725.97977060001,1725.97977060001,1725.97977060001,1735.2313293000043,['r'],0,[9.23689739999827],[None],1735.232194900018,1735.2462642000173,1735.2462642000173,1735.2462642000173,1738.0635086000257,3,2.814411300001666,3,2.814411300001666,,,,,,sub157_AB,001,2026-02-03_17h10.29.374,recognitionstage,,2025.1.1,59.9602703225156,2026-02-03 17h11.34.191414 +0530,
,,,17,17,0,40,frames\Vid40_EM_T.png,frames\Vid40_L.png,['r'],1,[4.357641100010369],[None],4,1.2155260000145063,,,,,0,17,17,39,1738.0832042000256,,20,Female,Right handed,Normal,,,,,,,,,,,,,,,,,,,,,,,,,,,,,,,,,,,,,,,,1738.0729928000073,1738.0832042000256,1738.0832042000256,1738.0832042000256,1738.0832042000256,1738.0832042000256,1738.0832042000256,1742.4474373999983,['r'],1,[4.357641100010369],[None],1742.4483144000114,1742.4627547000127,1742.4627547000127,1742.4627547000127,1743.6801188000245,4,1.2155260000145063,4,1.2155260000145063,,,,,,sub157_AB,001,2026-02-03_17h10.29.374,recognitionstage,,2025.1.1,59.9602703225156,2026-02-03 17h11.34.191414 +0530,
,,,18,18,0,35,frames\Vid35_EM_T.png,frames\Vid35_L.png,['l'],1,[4.615081399999326],[None],5,1.96434780000709,,,,,0,18,18,34,1743.6977088999993,,20,Female,Right handed,Normal,,,,,,,,,,,,,,,,,,,,,,,,,,,,,,,,,,,,,,,,1743.688668900024,1743.6977088999993,1743.6977088999993,1743.6977088999993,1743.6977088999993,1743.6977088999993,1743.6977088999993,1748.314662400022,['l'],1,[4.615081399999326],[None],1748.315633100021,1748.3294244999997,1748.3294244999997,1748.3294244999997,1750.29733630002,5,1.96434780000709,5,1.96434780000709,,,,,,sub157_AB,001,2026-02-03_17h10.29.374,recognitionstage,,2025.1.1,59.9602703225156,2026-02-03 17h11.34.191414 +0530,
,,,19,19,0,11,frames\Vid11_EM_T.png,frames\Vid11_L.png,['r'],1,[3.206807500013383],[None],5,0.7802586999896448,,,,,0,19,19,10,1750.3460990000167,,20,Female,Right handed,Normal,,,,,,,,,,,,,,,,,,,,,,,,,,,,,,,,,,,,,,,,1750.3396618000115,1750.3460990000167,1750.3460990000167,1750.3460990000167,1750.3460990000167,1750.3460990000167,1750.3460990000167,1753.565621000016,['r'],1,[3.206807500013383],[None],1753.5665328000032,1753.5790338000224,1753.5790338000224,1753.5790338000224,1754.3632722000184,5,0.7802586999896448,5,0.7802586999896448,,,,,,sub157_AB,001,2026-02-03_17h10.29.374,recognitionstage,,2025.1.1,59.9602703225156,2026-02-03 17h11.34.191414 +0530,
,,,20,20,0,20,frames\Vid20_EM_T.png,frames\Vid20_L.png,['l'],1,[2.265708999999333],[None],5,1.4973011999973096,,,,,0,20,20,19,1754.3832130000228,,20,Female,Right handed,Normal,,,,,,,,,,,,,,,,,,,,,,,,,,,,,,,,,,,,,,,,1754.369659100019,1754.3832130000228,1754.3832130000228,1754.3832130000228,1754.3832130000228,1754.3832130000228,1754.3832130000228,1756.665867600008,['l'],1,[2.265708999999333],[None],1756.666912500019,1756.6789188999974,1756.6789188999974,1756.6789188999974,1758.1800762000203,5,1.4973011999973096,5,1.4973011999973096,,,,,,sub157_AB,001,2026-02-03_17h10.29.374,recognitionstage,,2025.1.1,59.9602703225156,2026-02-03 17h11.34.191414 +0530,
,,,21,21,0,31,frames\Vid31_EM_T.png,frames\Vid31_L.png,['l'],1,[4.011345799983246],[None],4,1.131377000012435,,,,,0,21,21,30,1758.1975364000245,,20,Female,Right handed,Normal,,,,,,,,,,,,,,,,,,,,,,,,,,,,,,,,,,,,,,,,1758.1885153000185,1758.1975364000245,1758.1975364000245,1758.1975364000245,1758.1975364000245,1758.1975364000245,1758.1975364000245,1762.2144699000055,['l'],1,[4.011345799983246],[None],1762.2153924000158,1762.2294387000147,1762.2294387000147,1762.2294387000147,1763.3631913000136,4,1.131377000012435,4,1.131377000012435,,,,,,sub157_AB,001,2026-02-03_17h10.29.374,recognitionstage,,2025.1.1,59.9602703225156,2026-02-03 17h11.34.191414 +0530,
,,,22,22,0,16,frames\Vid16_EM_T.png,frames\Vid16_L.png,['l'],1,[4.091942800005199],[None],4,1.9816002000006847,,,,,0,22,22,15,1763.4128148000163,,20,Female,Right handed,Normal,,,,,,,,,,,,,,,,,,,,,,,,,,,,,,,,,,,,,,,,1763.401929500018,1763.4128148000163,1763.4128148000163,1763.4128148000163,1763.4128148000163,1763.4128148000163,1763.4128148000163,1767.5145153000194,['l'],1,[4.091942800005199],[None],1767.5153963000048,1767.5292738999997,1767.5292738999997,1767.5292738999997,1769.5127964999992,4,1.9816002000006847,4,1.9816002000006847,,,,,,sub157_AB,001,2026-02-03_17h10.29.374,recognitionstage,,2025.1.1,59.9602703225156,2026-02-03 17h11.34.191414 +0530,
,,,23,23,0,7,frames\Vid7_EM_T.png,frames\Vid7_L.png,['r'],1,[3.8507768000126816],[None],4,2.065442000020994,,,,,0,23,23,6,1769.5658203000203,,20,Female,Right handed,Normal,,,,,,,,,,,,,,,,,,,,,,,,,,,,,,,,,,,,,,,,1769.5564554000157,1769.5658203000203,1769.5658203000203,1769.5658203000203,1769.5658203000203,1769.5658203000203,1769.5658203000203,1773.430651200004,['r'],1,[3.8507768000126816],[None],1773.4315069000004,1773.446147700015,1773.446147700015,1773.446147700015,1775.5133725000196,4,2.065442000020994,4,2.065442000020994,,,,,,sub157_AB,001,2026-02-03_17h10.29.374,recognitionstage,,2025.1.1,59.9602703225156,2026-02-03 17h11.34.191414 +0530,
,,,24,24,0,22,frames\Vid22_EM_T.png,frames\Vid22_L.png,['r'],1,[2.5568002999934833],[None],5,0.9485368999885395,,,,,0,24,24,21,1775.5479360000172,,20,Female,Right handed,Normal,,,,,,,,,,,,,,,,,,,,,,,,,,,,,,,,,,,,,,,,1775.5266477999976,1775.5479360000172,1775.5479360000172,1775.5479360000172,1775.5479360000172,1775.5479360000172,1775.5479360000172,1778.1142723000085,['r'],1,[2.5568002999934833],[None],1778.1151670000108,1778.1295006000146,1778.1295006000146,1778.1295006000146,1779.0798441000225,5,0.9485368999885395,5,0.9485368999885395,,,,,,sub157_AB,001,2026-02-03_17h10.29.374,recognitionstage,,2025.1.1,59.9602703225156,2026-02-03 17h11.34.191414 +0530,
,,,25,25,0,18,frames\Vid18_EM_T.png,frames\Vid18_L.png,['l'],1,[4.304059199988842],[None],3,2.864903099980438,,,,,0,25,25,17,1779.1125978000055,,20,Female,Right handed,Normal,,,,,,,,,,,,,,,,,,,,,,,,,,,,,,,,,,,,,,,,1779.0912000000244,1779.1125978000055,1779.1125978000055,1779.1125978000055,1779.1125978000055,1779.1125978000055,1779.1125978000055,1783.4312790000113,['l'],1,[4.304059199988842],[None],1783.432164400001,1783.4461051000108,1783.4461051000108,1783.4461051000108,1786.3133390000148,3,2.864903099980438,3,2.864903099980438,,,,,,sub157_AB,001,2026-02-03_17h10.29.374,recognitionstage,,2025.1.1,59.9602703225156,2026-02-03 17h11.34.191414 +0530,
,,,26,26,0,17,frames\Vid17_BB_T.png,frames\Vid17_L.png,['r'],1,[8.422316599986516],[None],3,1.632743499998469,,,,,0,26,26,16,1786.346362900018,,20,Female,Right handed,Normal,,,,,,,,,,,,,,,,,,,,,,,,,,,,,,,,,,,,,,,,1786.3400074000238,1786.346362900018,1786.346362900018,1786.346362900018,1786.346362900018,1786.346362900018,1786.346362900018,1794.780933300004,['r'],1,[8.422316599986516],[None],1794.7818853000063,1794.7959899000125,1794.7959899000125,1794.7959899000125,1796.4304353000189,3,1.632743499998469,3,1.632743499998469,,,,,,sub157_AB,001,2026-02-03_17h10.29.374,recognitionstage,,2025.1.1,59.9602703225156,2026-02-03 17h11.34.191414 +0530,
,,,27,27,0,14,frames\Vid14_BB_T.png,frames\Vid14_L.png,['r'],1,[2.079048599989619],[None],4,2.132041000004392,,,,,0,27,27,13,1796.497693900019,,20,Female,Right handed,Normal,,,,,,,,,,,,,,,,,,,,,,,,,,,,,,,,,,,,,,,,1796.4773545000062,1796.497693900019,1796.497693900019,1796.497693900019,1796.497693900019,1796.497693900019,1796.497693900019,1798.581803500012,['r'],1,[2.079048599989619],[None],1798.582832300017,1798.5956650000007,1798.5956650000007,1798.5956650000007,1800.730115000013,4,2.132041000004392,4,2.132041000004392,,,,,,sub157_AB,001,2026-02-03_17h10.29.374,recognitionstage,,2025.1.1,59.9602703225156,2026-02-03 17h11.34.191414 +0530,
,,,28,28,0,21,frames\Vid21_BB_T.png,frames\Vid21_L.png,['l'],1,[2.5794276000233367],[None],5,1.2980689999822062,,,,,0,28,28,20,1800.7653869000205,,20,Female,Right handed,Normal,,,,,,,,,,,,,,,,,,,,,,,,,,,,,,,,,,,,,,,,1800.7435269000125,1800.7653869000205,1800.7653869000205,1800.7653869000205,1800.7653869000205,1800.7653869000205,1800.7653869000205,1803.3484998000204,['l'],1,[2.5794276000233367],[None],1803.3495478999976,1803.3634536000027,1803.3634536000027,1803.3634536000027,1804.663260900008,5,1.2980689999822062,5,1.2980689999822062,,,,,,sub157_AB,001,2026-02-03_17h10.29.374,recognitionstage,,2025.1.1,59.9602703225156,2026-02-03 17h11.34.191414 +0530,
,,,29,29,0,36,frames\Vid36_BB_T.png,frames\Vid36_L.png,['r'],1,[6.368426300003193],[None],5,1.0801482000097167,,,,,0,29,29,35,1804.6962102000252,,20,Female,Right handed,Normal,,,,,,,,,,,,,,,,,,,,,,,,,,,,,,,,,,,,,,,,1804.6755967000208,1804.6962102000252,1804.6962102000252,1804.6962102000252,1804.6962102000252,1804.6962102000252,1804.6962102000252,1811.0820560000138,['r'],1,[6.368426300003193],[None],1811.0829705000215,1811.0956333000213,1811.0956333000213,1811.0956333000213,1812.1800301000185,5,1.0801482000097167,5,1.0801482000097167,,,,,,sub157_AB,001,2026-02-03_17h10.29.374,recognitionstage,,2025.1.1,59.9602703225156,2026-02-03 17h11.34.191414 +0530,
,,,30,30,0,29,frames\Vid29_BB_T.png,frames\Vid29_L.png,['r'],1,[7.484051600011298],[None],4,1.7469562999904156,,,,,0,30,30,28,1812.2126279000076,,20,Female,Right handed,Normal,,,,,,,,,,,,,,,,,,,,,,,,,,,,,,,,,,,,,,,,1812.190630099998,1812.2126279000076,1812.2126279000076,1812.2126279000076,1812.2126279000076,1812.2126279000076,1812.2126279000076,1819.698618000024,['r'],1,[7.484051600011298],[None],1819.6994907000044,1819.712287500006,1819.712287500006,1819.712287500006,1821.4640222000016,4,1.7469562999904156,4,1.7469562999904156,,,,,,sub157_AB,001,2026-02-03_17h10.29.374,recognitionstage,,2025.1.1,59.9602703225156,2026-02-03 17h11.34.191414 +0530,
,,,31,31,0,26,frames\Vid26_EM_T.png,frames\Vid26_L.png,['r'],1,[3.056988199998159],[None],5,1.414701600006083,,,,,0,31,31,25,1821.4958612000046,,20,Female,Right handed,Normal,,,,,,,,,,,,,,,,,,,,,,,,,,,,,,,,,,,,,,,,1821.479427800019,1821.4958612000046,1821.4958612000046,1821.4958612000046,1821.4958612000046,1821.4958612000046,1821.4958612000046,1824.565029600024,['r'],1,[3.056988199998159],[None],1824.565843999997,1824.5794080000196,1824.5794080000196,1824.5794080000196,1825.9962618999998,5,1.414701600006083,5,1.414701600006083,,,,,,sub157_AB,001,2026-02-03_17h10.29.374,recognitionstage,,2025.1.1,59.9602703225156,2026-02-03 17h11.34.191414 +0530,
,,,32,32,0,9,frames\Vid9_EM_T.png,frames\Vid9_L.png,['r'],1,[3.626567800005432],[None],4,1.2979732000094373,,,,,0,32,32,8,1826.0461973000201,,20,Female,Right handed,Normal,,,,,,,,,,,,,,,,,,,,,,,,,,,,,,,,,,,,,,,,1826.0329203000001,1826.0461973000201,1826.0461973000201,1826.0461973000201,1826.0461973000201,1826.0461973000201,1826.0461973000201,1829.681058600021,['r'],1,[3.626567800005432],[None],1829.6821333999978,1829.6960464000003,1829.6960464000003,1829.6960464000003,1830.9965581000142,4,1.2979732000094373,4,1.2979732000094373,,,,,,sub157_AB,001,2026-02-03_17h10.29.374,recognitionstage,,2025.1.1,59.9602703225156,2026-02-03 17h11.34.191414 +0530,
,,,33,33,0,8,frames\Vid8_BB_T.png,frames\Vid8_L.png,['l'],0,[3.927391799981706],[None],4,2.1310245000058785,,,,,0,33,33,7,1831.0493162000203,,20,Female,Right handed,Normal,,,,,,,,,,,,,,,,,,,,,,,,,,,,,,,,,,,,,,,,1831.033238300006,1831.0493162000203,1831.0493162000203,1831.0493162000203,1831.0493162000203,1831.0493162000203,1831.0493162000203,1834.9814113000175,['l'],0,[3.927391799981706],[None],1834.982353200001,1834.9960059000005,1834.9960059000005,1834.9960059000005,1837.1298761000216,4,2.1310245000058785,4,2.1310245000058785,,,,,,sub157_AB,001,2026-02-03_17h10.29.374,recognitionstage,,2025.1.1,59.9602703225156,2026-02-03 17h11.34.191414 +0530,
,,,34,34,0,39,frames\Vid39_BB_T.png,frames\Vid39_L.png,['r'],1,[4.7465659999870695],[None],4,1.5974688999995124,,,,,0,34,34,38,1837.1500762000214,,20,Female,Right handed,Normal,,,,,,,,,,,,,,,,,,,,,,,,,,,,,,,,,,,,,,,,1837.138692700013,1837.1500762000214,1837.1500762000214,1837.1500762000214,1837.1500762000214,1837.1500762000214,1837.1500762000214,1841.8985444999998,['r'],1,[4.7465659999870695],[None],1841.8998598000035,1841.9122319000016,1841.9122319000016,1841.9122319000016,1843.5129231000028,4,1.5974688999995124,4,1.5974688999995124,,,,,,sub157_AB,001,2026-02-03_17h10.29.374,recognitionstage,,2025.1.1,59.9602703225156,2026-02-03 17h11.34.191414 +0530,
,,,35,35,0,34,frames\Vid34_BB_T.png,frames\Vid34_L.png,['r'],1,[6.429297199996654],[None],4,1.0495479000092018,,,,,0,35,35,33,1843.5313206000137,,20,Female,Right handed,Normal,,,,,,,,,,,,,,,,,,,,,,,,,,,,,,,,,,,,,,,,1843.5217240000202,1843.5313206000137,1843.5313206000137,1843.5313206000137,1843.5313206000137,1843.5313206000137,1843.5313206000137,1849.9640473000181,['r'],1,[6.429297199996654],[None],1849.9647438000247,1849.9789365000033,1849.9789365000033,1849.9789365000033,1851.030271800002,4,1.0495479000092018,4,1.0495479000092018,,,,,,sub157_AB,001,2026-02-03_17h10.29.374,recognitionstage,,2025.1.1,59.9602703225156,2026-02-03 17h11.34.191414 +0530,
,,,36,36,0,4,frames\Vid4_EM_T.png,frames\Vid4_L.png,['l'],1,[3.6485721000062767],[None],5,2.71361700000125,,,,,0,36,36,3,1851.0963975000195,,20,Female,Right handed,Normal,,,,,,,,,,,,,,,,,,,,,,,,,,,,,,,,,,,,,,,,1851.0765668000095,1851.0963975000195,1851.0963975000195,1851.0963975000195,1851.0963975000195,1851.0963975000195,1851.0963975000195,1854.748955100018,['l'],1,[3.6485721000062767],[None],1854.7500275000057,1854.7622104000184,1854.7622104000184,1854.7622104000184,1857.4806572000089,5,2.71361700000125,5,2.71361700000125,,,,,,sub157_AB,001,2026-02-03_17h10.29.374,recognitionstage,,2025.1.1,59.9602703225156,2026-02-03 17h11.34.191414 +0530,
,,,37,37,0,10,frames\Vid10_BB_T.png,frames\Vid10_L.png,['l'],1,[2.771349699993152],[None],4,1.2477711999963503,,,,,0,37,37,9,1857.5493031000078,,20,Female,Right handed,Normal,,,,,,,,,,,,,,,,,,,,,,,,,,,,,,,,,,,,,,,,1857.5237553000043,1857.5493031000078,1857.5493031000078,1857.5493031000078,1857.5493031000078,1857.5493031000078,1857.5493031000078,1860.3315985000227,['l'],1,[2.771349699993152],[None],1860.3325474000012,1860.3459815000242,1860.3459815000242,1860.3459815000242,1861.596899600001,4,1.2477711999963503,4,1.2477711999963503,,,,,,sub157_AB,001,2026-02-03_17h10.29.374,recognitionstage,,2025.1.1,59.9602703225156,2026-02-03 17h11.34.191414 +0530,
,,,38,38,0,30,frames\Vid30_EM_T.png,frames\Vid30_L.png,['r'],1,[5.168632399989292],[None],4,1.3138387000071816,,,,,0,38,38,29,1861.6320667999971,,20,Female,Right handed,Normal,,,,,,,,,,,,,,,,,,,,,,,,,,,,,,,,,,,,,,,,1861.6070822000038,1861.6320667999971,1861.6320667999971,1861.6320667999971,1861.6320667999971,1861.6320667999971,1861.6320667999971,1866.814989400009,['r'],1,[5.168632399989292],[None],1866.8158887000172,1866.8291450000252,1866.8291450000252,1866.8291450000252,1868.1464829000179,4,1.3138387000071816,4,1.3138387000071816,,,,,,sub157_AB,001,2026-02-03_17h10.29.374,recognitionstage,,2025.1.1,59.9602703225156,2026-02-03 17h11.34.191414 +0530,
,,,39,39,0,24,frames\Vid24_BB_T.png,frames\Vid24_L.png,['l'],1,[4.253785600012634],[None],5,1.8148645000183024,,,,,0,39,39,23,1868.1789238000056,,20,Female,Right handed,Normal,,,,,,,,,,,,,,,,,,,,,,,,,,,,,,,,,,,,,,,,1868.1583425000135,1868.1789238000056,1868.1789238000056,1868.1789238000056,1868.1789238000056,1868.1789238000056,1868.1789238000056,1872.4478382000234,['l'],1,[4.253785600012634],[None],1872.448957000015,1872.4627701000136,1872.4627701000136,1872.4627701000136,1874.2796246000216,5,1.8148645000183024,5,1.8148645000183024,,,,,,sub157_AB,001,2026-02-03_17h10.29.374,recognitionstage,,2025.1.1,59.9602703225156,2026-02-03 17h11.34.191414 +0530,
,,,,,,,,,,,,,,,,,,,,,,,,,20,Female,Right handed,Normal,,,,,,,,,,,,,,,,,,,,,,,,,,,,,,,,,,,,,,,,,,,,,,,,,,,,,,,,,,,,,1874.2797184000083,1874.2966900000174,1874.2966900000174,1894.2808250000235,None,sub157_AB,001,2026-02-03_17h10.29.374,recognitionstage,,2025.1.1,59.9602703225156,2026-02-03 17h11.34.191414 +0530,
