path,duration,is_repeat,thisN,thisTrialN,thisRepN,movie_id,target_img,lure_img,resp.keys,resp.corr,resp.rt,resp.duration,conf_radio.response,conf_radio.rt,movie.thisRepN,movie.thisTrialN,movie.thisN,movie.thisIndex,recogloop.thisRepN,recogloop.thisTrialN,recogloop.thisN,recogloop.thisIndex,thisRow.t,notes,age,gender,handedness,vision,caffeine_2h,alcohol_smoke_12h,demographics.started,demographics.stopped,Instructions.started,text1.started,key_resp.started,Instructions.stopped,key_resp.keys,key_resp.rt,key_resp.duration,instruction_2.started,text2.started,key_resp_2.started,instruction_2.stopped,key_resp_2.keys,key_resp_2.rt,key_resp_2.duration,Videos.started,movie_2.started,vigilance_resp.started,movie_2.stopped,Videos.stopped,movie.vigilance_resp.keys,vigilance_pressed,vigilance_correct,ISI.started,text.started,ISI.stopped,text.stopped,movie.vigilance_resp.rt,movie.vigilance_resp.duration,recognition.started,text_4.started,key_resp_3.started,recognition.stopped,key_resp_3.keys,key_resp_3.rt,key_resp_3.duration,recognition_task.started,leftimage.started,rightimage.started,resp.started,frames_question.started,right_label.started,left_label.started,recognition_task.stopped,recogloop.resp.keys,recogloop.resp.corr,recogloop.resp.rt,recogloop.resp.duration,confidence.started,conf_text.started,conf_radio.started,conf_label.started,confidence.stopped,recogloop.conf_radio.response,recogloop.conf_radio.rt,confidence,confidence_rt,thank_you.started,text_6.started,key_resp_4.started,thank_you.stopped,key_resp_4.keys,participant,session,date,expName,expVersion,psychopyVersion,frameRate,expStart,...103
,,,,,,,,,,,,,,,,,,,,,,,,,22,Female,Right handed,Normal,Caffeine consumed in last 2 hours?,Alcohol or smoking in last 12 hours?,0.019205000004149042,0.02162549999775365,,,,,,,,,,,,,,,,,,,,,,,,,,,,,,,,,,,,,,,,,,,,,,,,,,,,,,,,,,,,,,sub144_AB,001,2026-02-02_22h52.11.944,recognitionstage,,2025.1.1,60.14693897395617,2026-02-02 22h52.50.710609 +0530,
,,,,,,,,,,,,,,,,,,,,,,,,,22,Female,Right handed,Normal,,,,,0.021646599998348393,0.038306100002955645,0.038306100002955645,10.18974220000382,space,10.143161500003771,None,,,,,,,,,,,,,,,,,,,,,,,,,,,,,,,,,,,,,,,,,,,,,,,,,,,,,,,sub144_AB,001,2026-02-02_22h52.11.944,recognitionstage,,2025.1.1,60.14693897395617,2026-02-02 22h52.50.710609 +0530,
,,,,,,,,,,,,,,,,,,,,,,,,,22,Female,Right handed,Normal,,,,,,,,,,,,10.189800300009665,10.205990600006771,10.205990600006771,25.340782600003877,space,15.127569999996922,None,,,,,,,,,,,,,,,,,,,,,,,,,,,,,,,,,,,,,,,,,,,,,,,,sub144_AB,001,2026-02-02_22h52.11.944,recognitionstage,,2025.1.1,60.14693897395617,2026-02-02 22h52.50.710609 +0530,
abrupt_videos\abrupt_1.mp4,17,0,44,44,0,,,,,,,,,,0,44,44,0,,,,,1544.6540117999975,,22,Female,Right handed,Normal,,,,,,,,,,,,,,,,,,,1544.607587999999,1544.6540117999975,1544.6540117999975,1562.3861800000013,1562.2416811000003,None,0,1,1562.377701400008,1562.3861800000013,1564.8723731000064,1564.8879120000056,4.732243600010406,None,1564.8724498000083,1564.8879120000056,1564.8879120000056,1596.8384981999989,space,31.948936699991464,None,,,,,,,,,,,,,,,,,,,,,,,,,,,sub144_AB,001,2026-02-02_22h52.11.944,recognitionstage,,2025.1.1,60.14693897395617,2026-02-02 22h52.50.710609 +0530,
,,,0,0,0,10,frames\Vid10_BB_T.png,frames\Vid10_L.png,['r'],1,[6.037193799988017],[None],4,3.8470406999986153,,,,,0,0,0,9,1596.9196319000039,,22,Female,Right handed,Normal,,,,,,,,,,,,,,,,,,,,,,,,,,,,,,,,,,,,,,,,1596.906699900006,1596.9196319000039,1596.9196319000039,1596.9196319000039,1596.9196319000039,1596.9196319000039,1596.9196319000039,1602.9735139999975,['r'],1,[6.037193799988017],[None],1602.9745604000054,1603.002160300006,1603.002160300006,1603.002160300006,1606.8374042000069,4,3.8470406999986153,4,3.8470406999986153,,,,,,sub144_AB,001,2026-02-02_22h52.11.944,recognitionstage,,2025.1.1,60.14693897395617,2026-02-02 22h52.50.710609 +0530,
,,,1,1,0,32,frames\Vid32_EM_T.png,frames\Vid32_L.png,['r'],1,[3.189994000000297],[None],5,1.0487576000014087,,,,,0,1,1,31,1606.9027594000072,,22,Female,Right handed,Normal,,,,,,,,,,,,,,,,,,,,,,,,,,,,,,,,,,,,,,,,1606.883665900008,1606.9027594000072,1606.9027594000072,1606.9027594000072,1606.9027594000072,1606.9027594000072,1606.9027594000072,1610.106050500006,['r'],1,[3.189994000000297],[None],1610.1070213000057,1610.1209141,1610.1209141,1610.1209141,1611.171230100008,5,1.0487576000014087,5,1.0487576000014087,,,,,,sub144_AB,001,2026-02-02_22h52.11.944,recognitionstage,,2025.1.1,60.14693897395617,2026-02-02 22h52.50.710609 +0530,
,,,2,2,0,19,frames\Vid19_BB_T.png,frames\Vid19_L.png,['r'],1,[6.240549599999213],[None],3,2.04726859999937,,,,,0,2,2,18,1611.204228600007,,22,Female,Right handed,Normal,,,,,,,,,,,,,,,,,,,,,,,,,,,,,,,,,,,,,,,,1611.1950675999979,1611.204228600007,1611.204228600007,1611.204228600007,1611.204228600007,1611.204228600007,1611.204228600007,1617.4565017999994,['r'],1,[6.240549599999213],[None],1617.4575796999998,1617.470650400006,1617.470650400006,1617.470650400006,1619.5215524000087,3,2.04726859999937,3,2.04726859999937,,,,,,sub144_AB,001,2026-02-02_22h52.11.944,recognitionstage,,2025.1.1,60.14693897395617,2026-02-02 22h52.50.710609 +0530,
,,,3,3,0,6,frames\Vid6_BB_T.png,frames\Vid6_L.png,['r'],1,[9.288342500003637],[None],4,2.331197499996051,,,,,0,3,3,5,1619.588513900002,,22,Female,Right handed,Normal,,,,,,,,,,,,,,,,,,,,,,,,,,,,,,,,,,,,,,,,1619.5782092000009,1619.588513900002,1619.588513900002,1619.588513900002,1619.588513900002,1619.588513900002,1619.588513900002,1628.8890529000055,['r'],1,[9.288342500003637],[None],1628.889933700004,1628.9039973000035,1628.9039973000035,1628.9039973000035,1631.238003999999,4,2.331197499996051,4,2.331197499996051,,,,,,sub144_AB,001,2026-02-02_22h52.11.944,recognitionstage,,2025.1.1,60.14693897395617,2026-02-02 22h52.50.710609 +0530,
,,,4,4,0,14,frames\Vid14_BB_T.png,frames\Vid14_L.png,['l'],1,[7.528581699996721],[None],2,2.3145950000034645,,,,,0,4,4,13,1631.3244065000035,,22,Female,Right handed,Normal,,,,,,,,,,,,,,,,,,,,,,,,,,,,,,,,,,,,,,,,1631.2987036999984,1631.3244065000035,1631.3244065000035,1631.3244065000035,1631.3244065000035,1631.3244065000035,1631.3244065000035,1638.8564279999991,['l'],1,[7.528581699996721],[None],1638.857491200004,1638.8708370000095,1638.8708370000095,1638.8708370000095,1641.1878431000077,2,2.3145950000034645,2,2.3145950000034645,,,,,,sub144_AB,001,2026-02-02_22h52.11.944,recognitionstage,,2025.1.1,60.14693897395617,2026-02-02 22h52.50.710609 +0530,
,,,5,5,0,5,frames\Vid5_EM_T.png,frames\Vid5_L.png,['r'],1,[12.652734299990698],[None],2,0.7635424999898532,,,,,0,5,5,4,1641.2403743000032,,22,Female,Right handed,Normal,,,,,,,,,,,,,,,,,,,,,,,,,,,,,,,,,,,,,,,,1641.2309322000074,1641.2403743000032,1641.2403743000032,1641.2403743000032,1641.2403743000032,1641.2403743000032,1641.2403743000032,1653.9067297000001,['r'],1,[12.652734299990698],[None],1653.9081939000025,1653.935665500001,1653.935665500001,1653.935665500001,1654.6879449999979,2,0.7635424999898532,2,0.7635424999898532,,,,,,sub144_AB,001,2026-02-02_22h52.11.944,recognitionstage,,2025.1.1,60.14693897395617,2026-02-02 22h52.50.710609 +0530,
,,,6,6,0,17,frames\Vid17_BB_T.png,frames\Vid17_L.png,['r'],1,[3.2331197999883443],[None],5,1.865467900002841,,,,,0,6,6,16,1654.7397652000072,,22,Female,Right handed,Normal,,,,,,,,,,,,,,,,,,,,,,,,,,,,,,,,,,,,,,,,1654.7243814999965,1654.7397652000072,1654.7397652000072,1654.7397652000072,1654.7397652000072,1654.7397652000072,1654.7397652000072,1657.9891714999976,['r'],1,[3.2331197999883443],[None],1657.9899323999998,1658.0038288000069,1658.0038288000069,1658.0038288000069,1659.8715469000017,5,1.865467900002841,5,1.865467900002841,,,,,,sub144_AB,001,2026-02-02_22h52.11.944,recognitionstage,,2025.1.1,60.14693897395617,2026-02-02 22h52.50.710609 +0530,
,,,7,7,0,20,frames\Vid20_EM_T.png,frames\Vid20_L.png,['l'],0,[4.459676499987836],[None],3,1.1654127999936463,,,,,0,7,7,19,1659.9052954000072,,22,Female,Right handed,Normal,,,,,,,,,,,,,,,,,,,,,,,,,,,,,,,,,,,,,,,,1659.891648100005,1659.9052954000072,1659.9052954000072,1659.9052954000072,1659.9052954000072,1659.9052954000072,1659.9052954000072,1664.3727119999967,['l'],0,[4.459676499987836],[None],1664.3737500999996,1664.3876274000067,1664.3876274000067,1664.3876274000067,1665.555209500002,3,1.1654127999936463,3,1.1654127999936463,,,,,,sub144_AB,001,2026-02-02_22h52.11.944,recognitionstage,,2025.1.1,60.14693897395617,2026-02-02 22h52.50.710609 +0530,
,,,8,8,0,34,frames\Vid34_BB_T.png,frames\Vid34_L.png,['l'],1,[4.882155200000852],[None],3,1.1989464000071166,,,,,0,8,8,33,1665.5867680000083,,22,Female,Right handed,Normal,,,,,,,,,,,,,,,,,,,,,,,,,,,,,,,,,,,,,,,,1665.5798834000016,1665.5867680000083,1665.5867680000083,1665.5867680000083,1665.5867680000083,1665.5867680000083,1665.5867680000083,1670.4724292000028,['l'],1,[4.882155200000852],[None],1670.4731229000026,1670.4870235999988,1670.4870235999988,1670.4870235999988,1671.6876846000087,3,1.1989464000071166,3,1.1989464000071166,,,,,,sub144_AB,001,2026-02-02_22h52.11.944,recognitionstage,,2025.1.1,60.14693897395617,2026-02-02 22h52.50.710609 +0530,
,,,9,9,0,15,frames\Vid15_BB_T.png,frames\Vid15_L.png,['l'],1,[5.2737727999920025],[None],4,2.0637109000090277,,,,,0,9,9,14,1671.771166000006,,22,Female,Right handed,Normal,,,,,,,,,,,,,,,,,,,,,,,,,,,,,,,,,,,,,,,,1671.7527356000064,1671.771166000006,1671.771166000006,1671.771166000006,1671.771166000006,1671.771166000006,1671.771166000006,1677.0570334000076,['l'],1,[5.2737727999920025],[None],1677.0582708000002,1677.085966700004,1677.085966700004,1677.085966700004,1679.1387638000015,4,2.0637109000090277,4,2.0637109000090277,,,,,,sub144_AB,001,2026-02-02_22h52.11.944,recognitionstage,,2025.1.1,60.14693897395617,2026-02-02 22h52.50.710609 +0530,
,,,10,10,0,40,frames\Vid40_EM_T.png,frames\Vid40_L.png,['r'],0,[7.599449999994249],[None],4,0.9978152999974554,,,,,0,10,10,39,1679.1735033000004,,22,Female,Right handed,Normal,,,,,,,,,,,,,,,,,,,,,,,,,,,,,,,,,,,,,,,,1679.1606274000078,1679.1735033000004,1679.1735033000004,1679.1735033000004,1679.1735033000004,1679.1735033000004,1679.1735033000004,1686.7733623000095,['r'],0,[7.599449999994249],[None],1686.774359300005,1686.7874585999962,1686.7874585999962,1686.7874585999962,1687.7882845999993,4,0.9978152999974554,4,0.9978152999974554,,,,,,sub144_AB,001,2026-02-02_22h52.11.944,recognitionstage,,2025.1.1,60.14693897395617,2026-02-02 22h52.50.710609 +0530,
,,,11,11,0,16,frames\Vid16_EM_T.png,frames\Vid16_L.png,['l'],0,[6.318751600003452],[None],3,1.0655721000075573,,,,,0,11,11,15,1687.8543438000052,,22,Female,Right handed,Normal,,,,,,,,,,,,,,,,,,,,,,,,,,,,,,,,,,,,,,,,1687.8398182000092,1687.8543438000052,1687.8543438000052,1687.8543438000052,1687.8543438000052,1687.8543438000052,1687.8543438000052,1694.1887171999988,['l'],0,[6.318751600003452],[None],1694.189610500005,1694.2039470000018,1694.2039470000018,1694.2039470000018,1695.2721377999987,3,1.0655721000075573,3,1.0655721000075573,,,,,,sub144_AB,001,2026-02-02_22h52.11.944,recognitionstage,,2025.1.1,60.14693897395617,2026-02-02 22h52.50.710609 +0530,
,,,12,12,0,12,frames\Vid12_EM_T.png,frames\Vid12_L.png,['l'],1,[6.312108799989801],[None],4,1.2962865000008605,,,,,0,12,12,11,1695.3567887999961,,22,Female,Right handed,Normal,,,,,,,,,,,,,,,,,,,,,,,,,,,,,,,,,,,,,,,,1695.333481900001,1695.3567887999961,1695.3567887999961,1695.3567887999961,1695.3567887999961,1695.3567887999961,1695.3567887999961,1701.6738606,['l'],1,[6.312108799989801],[None],1701.6750876000006,1701.7026643999998,1701.7026643999998,1701.7026643999998,1702.9888069000008,4,1.2962865000008605,4,1.2962865000008605,,,,,,sub144_AB,001,2026-02-02_22h52.11.944,recognitionstage,,2025.1.1,60.14693897395617,2026-02-02 22h52.50.710609 +0530,
,,,13,13,0,31,frames\Vid31_EM_T.png,frames\Vid31_L.png,['l'],1,[4.2456443999981275],[None],4,1.1126786000095308,,,,,0,13,13,30,1703.0232126000046,,22,Female,Right handed,Normal,,,,,,,,,,,,,,,,,,,,,,,,,,,,,,,,,,,,,,,,1703.0124336000008,1703.0232126000046,1703.0232126000046,1703.0232126000046,1703.0232126000046,1703.0232126000046,1703.0232126000046,1707.2743243000004,['l'],1,[4.2456443999981275],[None],1707.2754384,1707.286869100004,1707.286869100004,1707.286869100004,1708.4051845000067,4,1.1126786000095308,4,1.1126786000095308,,,,,,sub144_AB,001,2026-02-02_22h52.11.944,recognitionstage,,2025.1.1,60.14693897395617,2026-02-02 22h52.50.710609 +0530,
,,,14,14,0,13,frames\Vid13_BB_T.png,frames\Vid13_L.png,['l'],1,[4.725977499998407],[None],4,0.7813714000076288,,,,,0,14,14,12,1708.4707770000095,,22,Female,Right handed,Normal,,,,,,,,,,,,,,,,,,,,,,,,,,,,,,,,,,,,,,,,1708.4513716000074,1708.4707770000095,1708.4707770000095,1708.4707770000095,1708.4707770000095,1708.4707770000095,1708.4707770000095,1713.2056317000097,['l'],1,[4.725977499998407],[None],1713.2065900000016,1713.220713200004,1713.220713200004,1713.220713200004,1714.0053517000051,4,0.7813714000076288,4,0.7813714000076288,,,,,,sub144_AB,001,2026-02-02_22h52.11.944,recognitionstage,,2025.1.1,60.14693897395617,2026-02-02 22h52.50.710609 +0530,
,,,15,15,0,11,frames\Vid11_EM_T.png,frames\Vid11_L.png,['l'],1,[4.763427600002615],[None],4,0.564199100001133,,,,,0,15,15,10,1714.073318099996,,22,Female,Right handed,Normal,,,,,,,,,,,,,,,,,,,,,,,,,,,,,,,,,,,,,,,,1714.0611379000038,1714.073318099996,1714.073318099996,1714.073318099996,1714.073318099996,1714.073318099996,1714.073318099996,1718.8396603,['l'],1,[4.763427600002615],[None],1718.8406810000015,1718.8541912000073,1718.8541912000073,1718.8541912000073,1719.421411000003,4,0.564199100001133,4,0.564199100001133,,,,,,sub144_AB,001,2026-02-02_22h52.11.944,recognitionstage,,2025.1.1,60.14693897395617,2026-02-02 22h52.50.710609 +0530,
,,,16,16,0,8,frames\Vid8_BB_T.png,frames\Vid8_L.png,['r'],1,[17.39479510000092],[None],3,1.1822841999965021,,,,,0,16,16,7,1719.4899436999985,,22,Female,Right handed,Normal,,,,,,,,,,,,,,,,,,,,,,,,,,,,,,,,,,,,,,,,1719.4710268000053,1719.4899436999985,1719.4899436999985,1719.4899436999985,1719.4899436999985,1719.4899436999985,1719.4899436999985,1736.889288899998,['r'],1,[17.39479510000092],[None],1736.8902264000062,1736.9042913000012,1736.9042913000012,1736.9042913000012,1738.0879014000093,3,1.1822841999965021,3,1.1822841999965021,,,,,,sub144_AB,001,2026-02-02_22h52.11.944,recognitionstage,,2025.1.1,60.14693897395617,2026-02-02 22h52.50.710609 +0530,
,,,17,17,0,39,frames\Vid39_BB_T.png,frames\Vid39_L.png,['l'],1,[3.337229800003115],[None],3,0.8466683000006014,,,,,0,17,17,38,1738.123526700001,,22,Female,Right handed,Normal,,,,,,,,,,,,,,,,,,,,,,,,,,,,,,,,,,,,,,,,1738.114633899997,1738.123526700001,1738.123526700001,1738.123526700001,1738.123526700001,1738.123526700001,1738.123526700001,1741.4733979000011,['l'],1,[3.337229800003115],[None],1741.474565800003,1741.4872662999987,1741.4872662999987,1741.4872662999987,1742.3379435000097,3,0.8466683000006014,3,0.8466683000006014,,,,,,sub144_AB,001,2026-02-02_22h52.11.944,recognitionstage,,2025.1.1,60.14693897395617,2026-02-02 22h52.50.710609 +0530,
,,,18,18,0,9,frames\Vid9_EM_T.png,frames\Vid9_L.png,['r'],1,[3.392563200002769],[None],4,1.5148782000032952,,,,,0,18,18,8,1742.4042130000016,,22,Female,Right handed,Normal,,,,,,,,,,,,,,,,,,,,,,,,,,,,,,,,,,,,,,,,1742.3873732000066,1742.4042130000016,1742.4042130000016,1742.4042130000016,1742.4042130000016,1742.4042130000016,1742.4042130000016,1745.805969299996,['r'],1,[3.392563200002769],[None],1745.8072294000012,1745.8208627999993,1745.8208627999993,1745.8208627999993,1747.3383866000077,4,1.5148782000032952,4,1.5148782000032952,,,,,,sub144_AB,001,2026-02-02_22h52.11.944,recognitionstage,,2025.1.1,60.14693897395617,2026-02-02 22h52.50.710609 +0530,
,,,19,19,0,3,frames\Vid3_BB_T.png,frames\Vid3_L.png,['r'],1,[3.4378912999964086],[None],5,1.86520699999528,,,,,0,19,19,2,1747.4068704999954,,22,Female,Right handed,Normal,,,,,,,,,,,,,,,,,,,,,,,,,,,,,,,,,,,,,,,,1747.3913768000057,1747.4068704999954,1747.4068704999954,1747.4068704999954,1747.4068704999954,1747.4068704999954,1747.4068704999954,1750.8558858000033,['r'],1,[3.4378912999964086],[None],1750.856737299997,1750.8702630000043,1750.8702630000043,1750.8702630000043,1752.7381762000005,5,1.86520699999528,5,1.86520699999528,,,,,,sub144_AB,001,2026-02-02_22h52.11.944,recognitionstage,,2025.1.1,60.14693897395617,2026-02-02 22h52.50.710609 +0530,
,,,20,20,0,23,frames\Vid23_EM_T.png,frames\Vid23_L.png,['r'],1,[6.798941700006253],[None],2,1.098826100002043,,,,,0,20,20,22,1752.7896983999963,,22,Female,Right handed,Normal,,,,,,,,,,,,,,,,,,,,,,,,,,,,,,,,,,,,,,,,1752.7665578000015,1752.7896983999963,1752.7896983999963,1752.7896983999963,1752.7896983999963,1752.7896983999963,1752.7896983999963,1759.605360200003,['r'],1,[6.798941700006253],[None],1759.6061064000096,1759.6204537000012,1759.6204537000012,1759.6204537000012,1760.7215978000022,2,1.098826100002043,2,1.098826100002043,,,,,,sub144_AB,001,2026-02-02_22h52.11.944,recognitionstage,,2025.1.1,60.14693897395617,2026-02-02 22h52.50.710609 +0530,
,,,21,21,0,2,frames\Vid2_BB_T.png,frames\Vid2_L.png,['l'],0,[5.872444900000119],[None],2,0.6652396999998018,,,,,0,21,21,1,1760.7882615999988,,22,Female,Right handed,Normal,,,,,,,,,,,,,,,,,,,,,,,,,,,,,,,,,,,,,,,,1760.7735635999998,1760.7882615999988,1760.7882615999988,1760.7882615999988,1760.7882615999988,1760.7882615999988,1760.7882615999988,1766.6723949000007,['l'],0,[5.872444900000119],[None],1766.6730549000058,1766.6869308000023,1766.6869308000023,1766.6869308000023,1767.354124000005,2,0.6652396999998018,2,0.6652396999998018,,,,,,sub144_AB,001,2026-02-02_22h52.11.944,recognitionstage,,2025.1.1,60.14693897395617,2026-02-02 22h52.50.710609 +0530,
,,,22,22,0,22,frames\Vid22_EM_T.png,frames\Vid22_L.png,['r'],1,[2.1505796999990707],[None],5,1.3152708999987226,,,,,0,22,22,21,1767.390071700007,,22,Female,Right handed,Normal,,,,,,,,,,,,,,,,,,,,,,,,,,,,,,,,,,,,,,,,1767.3805865000031,1767.390071700007,1767.390071700007,1767.390071700007,1767.390071700007,1767.390071700007,1767.390071700007,1769.555561000001,['r'],1,[2.1505796999990707],[None],1769.556481599997,1769.5707840999967,1769.5707840999967,1769.5707840999967,1770.8875507000048,5,1.3152708999987226,5,1.3152708999987226,,,,,,sub144_AB,001,2026-02-02_22h52.11.944,recognitionstage,,2025.1.1,60.14693897395617,2026-02-02 22h52.50.710609 +0530,
,,,23,23,0,30,frames\Vid30_EM_T.png,frames\Vid30_L.png,['r'],1,[8.860127400010242],[None],2,1.7156539999996312,,,,,0,23,23,29,1770.9206481,,22,Female,Right handed,Normal,,,,,,,,,,,,,,,,,,,,,,,,,,,,,,,,,,,,,,,,1770.9105393000063,1770.9206481,1770.9206481,1770.9206481,1770.9206481,1770.9206481,1770.9206481,1779.788696100004,['r'],1,[8.860127400010242],[None],1779.7895963000046,1779.8040483000077,1779.8040483000077,1779.8040483000077,1781.521061499996,2,1.7156539999996312,2,1.7156539999996312,,,,,,sub144_AB,001,2026-02-02_22h52.11.944,recognitionstage,,2025.1.1,60.14693897395617,2026-02-02 22h52.50.710609 +0530,
,,,24,24,0,25,frames\Vid25_BB_T.png,frames\Vid25_L.png,['r'],1,[6.8109304000099655],[None],3,1.8140733999898657,,,,,0,24,24,24,1781.553876799997,,22,Female,Right handed,Normal,,,,,,,,,,,,,,,,,,,,,,,,,,,,,,,,,,,,,,,,1781.5457697000093,1781.553876799997,1781.553876799997,1781.553876799997,1781.553876799997,1781.553876799997,1781.553876799997,1788.3728130999953,['r'],1,[6.8109304000099655],[None],1788.3737649999966,1788.3869831000047,1788.3869831000047,1788.3869831000047,1790.2044673000055,3,1.8140733999898657,3,1.8140733999898657,,,,,,sub144_AB,001,2026-02-02_22h52.11.944,recognitionstage,,2025.1.1,60.14693897395617,2026-02-02 22h52.50.710609 +0530,
,,,25,25,0,21,frames\Vid21_BB_T.png,frames\Vid21_L.png,['l'],1,[3.3198732000018936],[None],5,1.7646205000055488,,,,,0,25,25,20,1790.2370757000026,,22,Female,Right handed,Normal,,,,,,,,,,,,,,,,,,,,,,,,,,,,,,,,,,,,,,,,1790.2290641,1790.2370757000026,1790.2370757000026,1790.2370757000026,1790.2370757000026,1790.2370757000026,1790.2370757000026,1793.572286900002,['l'],1,[3.3198732000018936],[None],1793.5731775000022,1793.5874527999986,1793.5874527999986,1793.5874527999986,1795.355068600009,5,1.7646205000055488,5,1.7646205000055488,,,,,,sub144_AB,001,2026-02-02_22h52.11.944,recognitionstage,,2025.1.1,60.14693897395617,2026-02-02 22h52.50.710609 +0530,
,,,26,26,0,4,frames\Vid4_EM_T.png,frames\Vid4_L.png,['l'],1,[10.359469399991212],[None],3,1.664103699993575,,,,,0,26,26,3,1795.421394200006,,22,Female,Right handed,Normal,,,,,,,,,,,,,,,,,,,,,,,,,,,,,,,,,,,,,,,,1795.4125159999967,1795.421394200006,1795.421394200006,1795.421394200006,1795.421394200006,1795.421394200006,1795.421394200006,1805.789529600006,['l'],1,[10.359469399991212],[None],1805.7906659,1805.8038977999968,1805.8038977999968,1805.8038977999968,1807.4711374000035,3,1.664103699993575,3,1.664103699993575,,,,,,sub144_AB,001,2026-02-02_22h52.11.944,recognitionstage,,2025.1.1,60.14693897395617,2026-02-02 22h52.50.710609 +0530,
,,,27,27,0,33,frames\Vid33_BB_T.png,frames\Vid33_L.png,['l'],1,[4.498272400000133],[None],2,1.3152636000013445,,,,,0,27,27,32,1807.5064662000077,,22,Female,Right handed,Normal,,,,,,,,,,,,,,,,,,,,,,,,,,,,,,,,,,,,,,,,1807.4976542000077,1807.5064662000077,1807.5064662000077,1807.5064662000077,1807.5064662000077,1807.5064662000077,1807.5064662000077,1812.0060038000083,['l'],1,[4.498272400000133],[None],1812.0070568000083,1812.0207091000048,1812.0207091000048,1812.0207091000048,1813.3377684000006,2,1.3152636000013445,2,1.3152636000013445,,,,,,sub144_AB,001,2026-02-02_22h52.11.944,recognitionstage,,2025.1.1,60.14693897395617,2026-02-02 22h52.50.710609 +0530,
,,,28,28,0,28,frames\Vid28_EM_T.png,frames\Vid28_L.png,['l'],0,[6.914281399993342],[None],5,1.3310500000079628,,,,,0,28,28,27,1813.3705013,,22,Female,Right handed,Normal,,,,,,,,,,,,,,,,,,,,,,,,,,,,,,,,,,,,,,,,1813.361539000005,1813.3705013,1813.3705013,1813.3705013,1813.3705013,1813.3705013,1813.3705013,1820.289703900009,['l'],0,[6.914281399993342],[None],1820.2905256000086,1820.3039819999976,1820.3039819999976,1820.3039819999976,1821.6380845000094,5,1.3310500000079628,5,1.3310500000079628,,,,,,sub144_AB,001,2026-02-02_22h52.11.944,recognitionstage,,2025.1.1,60.14693897395617,2026-02-02 22h52.50.710609 +0530,
,,,29,29,0,36,frames\Vid36_BB_T.png,frames\Vid36_L.png,['r'],0,[9.518263699996169],[None],2,1.3976541000010911,,,,,0,29,29,35,1821.6705527000013,,22,Female,Right handed,Normal,,,,,,,,,,,,,,,,,,,,,,,,,,,,,,,,,,,,,,,,1821.6641017000074,1821.6705527000013,1821.6705527000013,1821.6705527000013,1821.6705527000013,1821.6705527000013,1821.6705527000013,1831.1902218000032,['r'],0,[9.518263699996169],[None],1831.1913597999956,1831.203515900008,1831.203515900008,1831.203515900008,1832.6044578,2,1.3976541000010911,2,1.3976541000010911,,,,,,sub144_AB,001,2026-02-02_22h52.11.944,recognitionstage,,2025.1.1,60.14693897395617,2026-02-02 22h52.50.710609 +0530,
,,,30,30,0,1,frames\Vid1_EM_T.png,frames\Vid1_L.png,['r'],1,[5.6053015000070445],[None],5,1.9648254999920027,,,,,0,30,30,0,1832.671364599999,,22,Female,Right handed,Normal,,,,,,,,,,,,,,,,,,,,,,,,,,,,,,,,,,,,,,,,1832.6645591999986,1832.671364599999,1832.671364599999,1832.671364599999,1832.671364599999,1832.671364599999,1832.671364599999,1838.2893970000005,['r'],1,[5.6053015000070445],[None],1838.2903206000046,1838.303559100008,1838.303559100008,1838.303559100008,1840.2706322000013,5,1.9648254999920027,5,1.9648254999920027,,,,,,sub144_AB,001,2026-02-02_22h52.11.944,recognitionstage,,2025.1.1,60.14693897395617,2026-02-02 22h52.50.710609 +0530,
,,,31,31,0,27,frames\Vid27_BB_T.png,frames\Vid27_L.png,['r'],0,[9.20192570000654],[None],4,1.314061799988849,,,,,0,31,31,26,1840.3068234000093,,22,Female,Right handed,Normal,,,,,,,,,,,,,,,,,,,,,,,,,,,,,,,,,,,,,,,,1840.292832799998,1840.3068234000093,1840.3068234000093,1840.3068234000093,1840.3068234000093,1840.3068234000093,1840.3068234000093,1849.5234762000036,['r'],0,[9.20192570000654],[None],1849.524782499997,1849.5519332999975,1849.5519332999975,1849.5519332999975,1850.8543920000084,4,1.314061799988849,4,1.314061799988849,,,,,,sub144_AB,001,2026-02-02_22h52.11.944,recognitionstage,,2025.1.1,60.14693897395617,2026-02-02 22h52.50.710609 +0530,
,,,32,32,0,37,frames\Vid37_BB_T.png,frames\Vid37_L.png,['r'],1,[2.957652600001893],[None],5,1.2981087999942247,,,,,0,32,32,36,1850.887027100005,,22,Female,Right handed,Normal,,,,,,,,,,,,,,,,,,,,,,,,,,,,,,,,,,,,,,,,1850.8797270000068,1850.887027100005,1850.887027100005,1850.887027100005,1850.887027100005,1850.887027100005,1850.887027100005,1853.855532600006,['r'],1,[2.957652600001893],[None],1853.8564544999972,1853.871399399999,1853.871399399999,1853.871399399999,1855.1713365000032,5,1.2981087999942247,5,1.2981087999942247,,,,,,sub144_AB,001,2026-02-02_22h52.11.944,recognitionstage,,2025.1.1,60.14693897395617,2026-02-02 22h52.50.710609 +0530,
,,,33,33,0,29,frames\Vid29_BB_T.png,frames\Vid29_L.png,['l'],0,[3.6088430999952834],[None],3,1.5489145000028657,,,,,0,33,33,28,1855.203749799999,,22,Female,Right handed,Normal,,,,,,,,,,,,,,,,,,,,,,,,,,,,,,,,,,,,,,,,1855.196541199999,1855.203749799999,1855.203749799999,1855.203749799999,1855.203749799999,1855.203749799999,1855.203749799999,1858.8220877999993,['l'],0,[3.6088430999952834],[None],1858.8227890999988,1858.8375574999955,1858.8375574999955,1858.8375574999955,1860.3881081,3,1.5489145000028657,3,1.5489145000028657,,,,,,sub144_AB,001,2026-02-02_22h52.11.944,recognitionstage,,2025.1.1,60.14693897395617,2026-02-02 22h52.50.710609 +0530,
,,,34,34,0,24,frames\Vid24_BB_T.png,frames\Vid24_L.png,['r'],1,[4.328382099993178],[None],4,1.4814327000058256,,,,,0,34,34,23,1860.4204707000026,,22,Female,Right handed,Normal,,,,,,,,,,,,,,,,,,,,,,,,,,,,,,,,,,,,,,,,1860.414625400008,1860.4204707000026,1860.4204707000026,1860.4204707000026,1860.4204707000026,1860.4204707000026,1860.4204707000026,1864.7562063000078,['r'],1,[4.328382099993178],[None],1864.7572051000025,1864.7705255000037,1864.7705255000037,1864.7705255000037,1866.2547190000041,4,1.4814327000058256,4,1.4814327000058256,,,,,,sub144_AB,001,2026-02-02_22h52.11.944,recognitionstage,,2025.1.1,60.14693897395617,2026-02-02 22h52.50.710609 +0530,
,,,35,35,0,7,frames\Vid7_EM_T.png,frames\Vid7_L.png,['r'],1,[8.107296200003475],[None],3,1.0803461000032257,,,,,0,35,35,6,1866.321491099996,,22,Female,Right handed,Normal,,,,,,,,,,,,,,,,,,,,,,,,,,,,,,,,,,,,,,,,1866.3103369000019,1866.321491099996,1866.321491099996,1866.321491099996,1866.321491099996,1866.321491099996,1866.321491099996,1874.4400817999995,['r'],1,[8.107296200003475],[None],1874.441092699999,1874.4535882000055,1874.4535882000055,1874.4535882000055,1875.5378976000065,3,1.0803461000032257,3,1.0803461000032257,,,,,,sub144_AB,001,2026-02-02_22h52.11.944,recognitionstage,,2025.1.1,60.14693897395617,2026-02-02 22h52.50.710609 +0530,
,,,36,36,0,18,frames\Vid18_EM_T.png,frames\Vid18_L.png,['r'],1,[5.62335969999549],[None],3,0.582273099993472,,,,,0,36,36,17,1875.589271200006,,22,Female,Right handed,Normal,,,,,,,,,,,,,,,,,,,,,,,,,,,,,,,,,,,,,,,,1875.5652035000094,1875.589271200006,1875.589271200006,1875.589271200006,1875.589271200006,1875.589271200006,1875.589271200006,1881.2219448999967,['r'],1,[5.62335969999549],[None],1881.2227710000006,1881.2373449000006,1881.2373449000006,1881.2373449000006,1881.8210610000096,3,0.582273099993472,3,0.582273099993472,,,,,,sub144_AB,001,2026-02-02_22h52.11.944,recognitionstage,,2025.1.1,60.14693897395617,2026-02-02 22h52.50.710609 +0530,
,,,37,37,0,38,frames\Vid38_EM_T.png,frames\Vid38_L.png,['r'],1,[3.4947506000025896],[None],4,1.8488133999926504,,,,,0,37,37,37,1881.8540805000084,,22,Female,Right handed,Normal,,,,,,,,,,,,,,,,,,,,,,,,,,,,,,,,,,,,,,,,1881.8446647000092,1881.8540805000084,1881.8540805000084,1881.8540805000084,1881.8540805000084,1881.8540805000084,1881.8540805000084,1885.3555844000075,['r'],1,[3.4947506000025896],[None],1885.356396999996,1885.370580600007,1885.370580600007,1885.370580600007,1887.2208124000026,4,1.8488133999926504,4,1.8488133999926504,,,,,,sub144_AB,001,2026-02-02_22h52.11.944,recognitionstage,,2025.1.1,60.14693897395617,2026-02-02 22h52.50.710609 +0530,
,,,38,38,0,35,frames\Vid35_EM_T.png,frames\Vid35_L.png,['r'],1,[5.127024900008109],[None],4,0.5814017999946373,,,,,0,38,38,34,1887.2537948999961,,22,Female,Right handed,Normal,,,,,,,,,,,,,,,,,,,,,,,,,,,,,,,,,,,,,,,,1887.2418152000027,1887.2537948999961,1887.2537948999961,1887.2537948999961,1887.2537948999961,1887.2537948999961,1887.2537948999961,1892.3891090999969,['r'],1,[5.127024900008109],[None],1892.3901595000061,1892.4038549999968,1892.4038549999968,1892.4038549999968,1892.9873708000086,4,0.5814017999946373,4,0.5814017999946373,,,,,,sub144_AB,001,2026-02-02_22h52.11.944,recognitionstage,,2025.1.1,60.14693897395617,2026-02-02 22h52.50.710609 +0530,
,,,39,39,0,26,frames\Vid26_EM_T.png,frames\Vid26_L.png,['r'],1,[12.320320899991202],[None],5,1.6638010000024224,,,,,0,39,39,25,1893.0204109000042,,22,Female,Right handed,Normal,,,,,,,,,,,,,,,,,,,,,,,,,,,,,,,,,,,,,,,,1893.0148738999997,1893.0204109000042,1893.0204109000042,1893.0204109000042,1893.0204109000042,1893.0204109000042,1893.0204109000042,1905.356521900001,['r'],1,[12.320320899991202],[None],1905.3581856999954,1905.3851445000037,1905.3851445000037,1905.3851445000037,1907.0384782000037,5,1.6638010000024224,5,1.6638010000024224,,,,,,sub144_AB,001,2026-02-02_22h52.11.944,recognitionstage,,2025.1.1,60.14693897395617,2026-02-02 22h52.50.710609 +0530,
,,,,,,,,,,,,,,,,,,,,,,,,,22,Female,Right handed,Normal,,,,,,,,,,,,,,,,,,,,,,,,,,,,,,,,,,,,,,,,,,,,,,,,,,,,,,,,,,,,,1907.0385958999977,1907.0560331000015,1907.0560331000015,1927.0391047000012,None,sub144_AB,001,2026-02-02_22h52.11.944,recognitionstage,,2025.1.1,60.14693897395617,2026-02-02 22h52.50.710609 +0530,
