path,duration,is_repeat,thisN,thisTrialN,thisRepN,movie_id,target_img,lure_img,resp.keys,resp.corr,resp.rt,resp.duration,conf_radio.response,conf_radio.rt,movie.thisRepN,movie.thisTrialN,movie.thisN,movie.thisIndex,recogloop.thisRepN,recogloop.thisTrialN,recogloop.thisN,recogloop.thisIndex,thisRow.t,notes,age,gender,handedness,vision,caffeine_2h,alcohol_smoke_12h,demographics.started,demographics.stopped,Instructions.started,text1.started,key_resp.started,Instructions.stopped,key_resp.keys,key_resp.rt,key_resp.duration,instruction_2.started,text2.started,key_resp_2.started,instruction_2.stopped,key_resp_2.keys,key_resp_2.rt,key_resp_2.duration,Videos.started,movie_2.started,vigilance_resp.started,movie_2.stopped,Videos.stopped,movie.vigilance_resp.keys,vigilance_pressed,vigilance_correct,ISI.started,text.started,text.stopped,ISI.stopped,movie.vigilance_resp.rt,movie.vigilance_resp.duration,recognition.started,text_4.started,key_resp_3.started,recognition.stopped,key_resp_3.keys,key_resp_3.rt,key_resp_3.duration,recognition_task.started,leftimage.started,rightimage.started,resp.started,frames_question.started,right_label.started,left_label.started,recognition_task.stopped,recogloop.resp.keys,recogloop.resp.corr,recogloop.resp.rt,recogloop.resp.duration,confidence.started,conf_text.started,conf_radio.started,conf_label.started,confidence.stopped,recogloop.conf_radio.response,recogloop.conf_radio.rt,confidence,confidence_rt,thank_you.started,text_6.started,key_resp_4.started,thank_you.stopped,key_resp_4.keys,key_resp_4.rt,key_resp_4.duration,participant,session,date,expName,expVersion,psychopyVersion,frameRate,expStart,...105
,,,,,,,,,,,,,,,,,,,,,,,,,24,Male,Right handed,Normal,Caffeine consumed in last 2 hours?,Alcohol or smoking in last 12 hours?,0.008869000000231608,0.01128549999975803,,,,,,,,,,,,,,,,,,,,,,,,,,,,,,,,,,,,,,,,,,,,,,,,,,,,,,,,,,,,,,,,sub121_AB,001,2026-02-01_16h01.46.910,recognitionstage,,2025.1.1,59.95656746270239,2026-02-01 16h02.47.295445 +0530,
,,,,,,,,,,,,,,,,,,,,,,,,,24,Male,Right handed,Normal,,,,,0.011308399999506946,0.028048399999534013,0.028048399999534013,7.329996499999652,space,7.296120199999677,None,,,,,,,,,,,,,,,,,,,,,,,,,,,,,,,,,,,,,,,,,,,,,,,,,,,,,,,,,sub121_AB,001,2026-02-01_16h01.46.910,recognitionstage,,2025.1.1,59.95656746270239,2026-02-01 16h02.47.295445 +0530,
,,,,,,,,,,,,,,,,,,,,,,,,,24,Male,Right handed,Normal,,,,,,,,,,,,7.330044000000271,7.344567000000097,7.344567000000097,17.862753399999747,space,10.507457099999556,None,,,,,,,,,,,,,,,,,,,,,,,,,,,,,,,,,,,,,,,,,,,,,,,,,,sub121_AB,001,2026-02-01_16h01.46.910,recognitionstage,,2025.1.1,59.95656746270239,2026-02-01 16h02.47.295445 +0530,
abrupt_videos\abrupt_19.mp4,36,0,44,44,0,,,,,,,,,,0,44,44,21,,,,,1564.9100396000003,,24,Male,Right handed,Normal,,,,,,,,,,,,,,,,,,,1564.8594870999996,1564.9100396000003,1564.9100396000003,1601.8764213000004,1601.7279090999991,None,0,1,1601.8635158999996,1601.8764213000004,1604.3783104999993,1604.3621988000004,9.245199400000274,None,1604.3622793000004,1604.3783104999993,1604.3783104999993,1627.2784077999995,space,22.889091799999733,None,,,,,,,,,,,,,,,,,,,,,,,,,,,,,sub121_AB,001,2026-02-01_16h01.46.910,recognitionstage,,2025.1.1,59.95656746270239,2026-02-01 16h02.47.295445 +0530,
,,,0,0,0,32,frames\Vid32_EM_T.png,frames\Vid32_L.png,['r'],1,[3.142324300000837],[None],5,4.76502310000069,,,,,0,0,0,31,1627.3090602999991,,24,Male,Right handed,Normal,,,,,,,,,,,,,,,,,,,,,,,,,,,,,,,,,,,,,,,,1627.296292599999,1627.3090602999991,1627.3090602999991,1627.3090602999991,1627.3090602999991,1627.3090602999991,1627.3090602999991,1630.462525599999,['r'],1,[3.142324300000837],[None],1630.463289799999,1630.4768333000002,1630.4768333000002,1630.4768333000002,1635.2443649000006,5,4.76502310000069,5,4.76502310000069,,,,,,,,sub121_AB,001,2026-02-01_16h01.46.910,recognitionstage,,2025.1.1,59.95656746270239,2026-02-01 16h02.47.295445 +0530,
,,,1,1,0,15,frames\Vid15_BB_T.png,frames\Vid15_L.png,['r'],1,[3.126386399999319],[None],4,1.4982065000003786,,,,,0,1,1,14,1635.3091450000002,,24,Male,Right handed,Normal,,,,,,,,,,,,,,,,,,,,,,,,,,,,,,,,,,,,,,,,1635.2981871999991,1635.3091450000002,1635.3091450000002,1635.3091450000002,1635.3091450000002,1635.3091450000002,1635.3091450000002,1638.4461440999994,['r'],1,[3.126386399999319],[None],1638.4471729999996,1638.4604948000006,1638.4604948000006,1638.4604948000006,1639.9617308000006,4,1.4982065000003786,4,1.4982065000003786,,,,,,,,sub121_AB,001,2026-02-01_16h01.46.910,recognitionstage,,2025.1.1,59.95656746270239,2026-02-01 16h02.47.295445 +0530,
,,,2,2,0,19,frames\Vid19_BB_T.png,frames\Vid19_L.png,['l'],1,[15.922747900000104],[None],4,0.9472252999985358,,,,,0,2,2,18,1639.992734299999,,24,Male,Right handed,Normal,,,,,,,,,,,,,,,,,,,,,,,,,,,,,,,,,,,,,,,,1639.9851210000006,1639.992734299999,1639.992734299999,1639.992734299999,1639.992734299999,1639.992734299999,1639.992734299999,1655.9301181,['l'],1,[15.922747900000104],[None],1655.9319425999993,1655.9586475999995,1655.9586475999995,1655.9586475999995,1656.8941786999994,4,0.9472252999985358,4,0.9472252999985358,,,,,,,,sub121_AB,001,2026-02-01_16h01.46.910,recognitionstage,,2025.1.1,59.95656746270239,2026-02-01 16h02.47.295445 +0530,
,,,3,3,0,2,frames\Vid2_BB_T.png,frames\Vid2_L.png,['l'],1,[6.3470424999995885],[None],5,0.8993847000001551,,,,,0,3,3,1,1656.9443225000005,,24,Male,Right handed,Normal,,,,,,,,,,,,,,,,,,,,,,,,,,,,,,,,,,,,,,,,1656.9334346000005,1656.9443225000005,1656.9443225000005,1656.9443225000005,1656.9443225000005,1656.9443225000005,1656.9443225000005,1663.2959617999995,['l'],1,[6.3470424999995885],[None],1663.296665499999,1663.3101713000005,1663.3101713000005,1663.3101713000005,1664.2106747000007,5,0.8993847000001551,5,0.8993847000001551,,,,,,,,sub121_AB,001,2026-02-01_16h01.46.910,recognitionstage,,2025.1.1,59.95656746270239,2026-02-01 16h02.47.295445 +0530,
,,,4,4,0,34,frames\Vid34_BB_T.png,frames\Vid34_L.png,['l'],0,[10.148583000000144],[None],2,2.214329299999008,,,,,0,4,4,33,1664.246759999999,,24,Male,Right handed,Normal,,,,,,,,,,,,,,,,,,,,,,,,,,,,,,,,,,,,,,,,1664.2224309999992,1664.246759999999,1664.246759999999,1664.246759999999,1664.246759999999,1664.246759999999,1664.246759999999,1674.3961384000004,['l'],0,[10.148583000000144],[None],1674.3970660000005,1674.4100891999997,1674.4100891999997,1674.4100891999997,1676.6279841999994,2,2.214329299999008,2,2.214329299999008,,,,,,,,sub121_AB,001,2026-02-01_16h01.46.910,recognitionstage,,2025.1.1,59.95656746270239,2026-02-01 16h02.47.295445 +0530,
,,,5,5,0,22,frames\Vid22_EM_T.png,frames\Vid22_L.png,['r'],0,[4.607224499999575],[None],3,1.2644843999987643,,,,,0,5,5,21,1676.6601684999996,,24,Male,Right handed,Normal,,,,,,,,,,,,,,,,,,,,,,,,,,,,,,,,,,,,,,,,1676.6415583999997,1676.6601684999996,1676.6601684999996,1676.6601684999996,1676.6601684999996,1676.6601684999996,1676.6601684999996,1681.2800257999997,['r'],0,[4.607224499999575],[None],1681.2810304999994,1681.293528199999,1681.293528199999,1681.293528199999,1682.5608776,3,1.2644843999987643,3,1.2644843999987643,,,,,,,,sub121_AB,001,2026-02-01_16h01.46.910,recognitionstage,,2025.1.1,59.95656746270239,2026-02-01 16h02.47.295445 +0530,
,,,6,6,0,8,frames\Vid8_BB_T.png,frames\Vid8_L.png,['r'],1,[3.7920756000003166],[None],4,0.931344500000705,,,,,0,6,6,7,1682.6113876999998,,24,Male,Right handed,Normal,,,,,,,,,,,,,,,,,,,,,,,,,,,,,,,,,,,,,,,,1682.5995515999994,1682.6113876999998,1682.6113876999998,1682.6113876999998,1682.6113876999998,1682.6113876999998,1682.6113876999998,1686.4121860999994,['r'],1,[3.7920756000003166],[None],1686.4131810999997,1686.4274589000006,1686.4274589000006,1686.4274589000006,1687.3610679000003,4,0.931344500000705,4,0.931344500000705,,,,,,,,sub121_AB,001,2026-02-01_16h01.46.910,recognitionstage,,2025.1.1,59.95656746270239,2026-02-01 16h02.47.295445 +0530,
,,,7,7,0,17,frames\Vid17_BB_T.png,frames\Vid17_L.png,['r'],0,[6.438648499999545],[None],2,1.0656072000001586,,,,,0,7,7,16,1687.3968011999996,,24,Male,Right handed,Normal,,,,,,,,,,,,,,,,,,,,,,,,,,,,,,,,,,,,,,,,1687.3852536999993,1687.3968011999996,1687.3968011999996,1687.3968011999996,1687.3968011999996,1687.3968011999996,1687.3968011999996,1693.8453285999994,['r'],0,[6.438648499999545],[None],1693.8463502999994,1693.8602681999992,1693.8602681999992,1693.8602681999992,1694.9277847000003,2,1.0656072000001586,2,1.0656072000001586,,,,,,,,sub121_AB,001,2026-02-01_16h01.46.910,recognitionstage,,2025.1.1,59.95656746270239,2026-02-01 16h02.47.295445 +0530,
,,,8,8,0,27,frames\Vid27_BB_T.png,frames\Vid27_L.png,['l'],1,[4.584507500001564],[None],2,1.0132573999999295,,,,,0,8,8,26,1694.9468767000008,,24,Male,Right handed,Normal,,,,,,,,,,,,,,,,,,,,,,,,,,,,,,,,,,,,,,,,1694.9371867,1694.9468767000008,1694.9468767000008,1694.9468767000008,1694.9468767000008,1694.9468767000008,1694.9468767000008,1699.546868299999,['l'],1,[4.584507500001564],[None],1699.5479487000002,1699.5602850000005,1699.5602850000005,1699.5602850000005,1700.5778433999994,2,1.0132573999999295,2,1.0132573999999295,,,,,,,,sub121_AB,001,2026-02-01_16h01.46.910,recognitionstage,,2025.1.1,59.95656746270239,2026-02-01 16h02.47.295445 +0530,
,,,9,9,0,33,frames\Vid33_BB_T.png,frames\Vid33_L.png,['l'],1,[3.464241800000309],[None],5,0.8977350000004662,,,,,0,9,9,32,1700.5952110000007,,24,Male,Right handed,Normal,,,,,,,,,,,,,,,,,,,,,,,,,,,,,,,,,,,,,,,,1700.5879154000004,1700.5952110000007,1700.5952110000007,1700.5952110000007,1700.5952110000007,1700.5952110000007,1700.5952110000007,1704.0625413999996,['l'],1,[3.464241800000309],[None],1704.0636638999995,1704.0771814999998,1704.0771814999998,1704.0771814999998,1704.9777100000001,5,0.8977350000004662,5,0.8977350000004662,,,,,,,,sub121_AB,001,2026-02-01_16h01.46.910,recognitionstage,,2025.1.1,59.95656746270239,2026-02-01 16h02.47.295445 +0530,
,,,10,10,0,31,frames\Vid31_EM_T.png,frames\Vid31_L.png,['r'],1,[3.136455699999715],[None],5,0.7629312999997637,,,,,0,10,10,30,1704.9951047000004,,24,Male,Right handed,Normal,,,,,,,,,,,,,,,,,,,,,,,,,,,,,,,,,,,,,,,,1704.9853004999995,1704.9951047000004,1704.9951047000004,1704.9951047000004,1704.9951047000004,1704.9951047000004,1704.9951047000004,1708.1476009000007,['r'],1,[3.136455699999715],[None],1708.1490263999995,1708.1753397000002,1708.1753397000002,1708.1753397000002,1708.9276352000006,5,0.7629312999997637,5,0.7629312999997637,,,,,,,,sub121_AB,001,2026-02-01_16h01.46.910,recognitionstage,,2025.1.1,59.95656746270239,2026-02-01 16h02.47.295445 +0530,
,,,11,11,0,14,frames\Vid14_BB_T.png,frames\Vid14_L.png,['l'],1,[3.554085399999167],[None],3,0.8307294999995065,,,,,0,11,11,13,1708.9775051999995,,24,Male,Right handed,Normal,,,,,,,,,,,,,,,,,,,,,,,,,,,,,,,,,,,,,,,,1708.971314899999,1708.9775051999995,1708.9775051999995,1708.9775051999995,1708.9775051999995,1708.9775051999995,1708.9775051999995,1712.5457090999998,['l'],1,[3.554085399999167],[None],1712.5470629000001,1712.5605881000001,1712.5605881000001,1712.5605881000001,1713.3951205999992,3,0.8307294999995065,3,0.8307294999995065,,,,,,,,sub121_AB,001,2026-02-01_16h01.46.910,recognitionstage,,2025.1.1,59.95656746270239,2026-02-01 16h02.47.295445 +0530,
,,,12,12,0,39,frames\Vid39_BB_T.png,frames\Vid39_L.png,['l'],1,[4.493221700000504],[None],3,0.6144851000008202,,,,,0,12,12,38,1713.4144392999997,,24,Male,Right handed,Normal,,,,,,,,,,,,,,,,,,,,,,,,,,,,,,,,,,,,,,,,1713.4035967999998,1713.4144392999997,1713.4144392999997,1713.4144392999997,1713.4144392999997,1713.4144392999997,1713.4144392999997,1717.9129977000002,['l'],1,[4.493221700000504],[None],1717.913979,1717.9272133999993,1717.9272133999993,1717.9272133999993,1718.5441411000002,3,0.6144851000008202,3,0.6144851000008202,,,,,,,,sub121_AB,001,2026-02-01_16h01.46.910,recognitionstage,,2025.1.1,59.95656746270239,2026-02-01 16h02.47.295445 +0530,
,,,13,13,0,40,frames\Vid40_EM_T.png,frames\Vid40_L.png,['l'],1,[2.817327100001421],[None],1,2.1471416000003956,,,,,0,13,13,39,1718.5621094000007,,24,Male,Right handed,Normal,,,,,,,,,,,,,,,,,,,,,,,,,,,,,,,,,,,,,,,,1718.5512737,1718.5621094000007,1718.5621094000007,1718.5621094000007,1718.5621094000007,1718.5621094000007,1718.5621094000007,1721.3965562000003,['l'],1,[2.817327100001421],[None],1721.3975977,1721.4102159000004,1721.4102159000004,1721.4102159000004,1723.5614113000001,1,2.1471416000003956,1,2.1471416000003956,,,,,,,,sub121_AB,001,2026-02-01_16h01.46.910,recognitionstage,,2025.1.1,59.95656746270239,2026-02-01 16h02.47.295445 +0530,
,,,14,14,0,30,frames\Vid30_EM_T.png,frames\Vid30_L.png,['l'],1,[10.857932700000674],[None],4,1.5651708999994298,,,,,0,14,14,29,1723.5934172000007,,24,Male,Right handed,Normal,,,,,,,,,,,,,,,,,,,,,,,,,,,,,,,,,,,,,,,,1723.572164099999,1723.5934172000007,1723.5934172000007,1723.5934172000007,1723.5934172000007,1723.5934172000007,1723.5934172000007,1734.4619553000002,['l'],1,[10.857932700000674],[None],1734.4628213999995,1734.4775135999998,1734.4775135999998,1734.4775135999998,1736.0447034,4,1.5651708999994298,4,1.5651708999994298,,,,,,,,sub121_AB,001,2026-02-01_16h01.46.910,recognitionstage,,2025.1.1,59.95656746270239,2026-02-01 16h02.47.295445 +0530,
,,,15,15,0,20,frames\Vid20_EM_T.png,frames\Vid20_L.png,['r'],1,[9.213750899998558],[None],4,0.9122319999987667,,,,,0,15,15,19,1736.061890599999,,24,Male,Right handed,Normal,,,,,,,,,,,,,,,,,,,,,,,,,,,,,,,,,,,,,,,,1736.0509888999995,1736.061890599999,1736.061890599999,1736.061890599999,1736.061890599999,1736.061890599999,1736.061890599999,1745.2813715000002,['r'],1,[9.213750899998558],[None],1745.2829357,1745.308501999999,1745.308501999999,1745.308501999999,1746.211066499999,4,0.9122319999987667,4,0.9122319999987667,,,,,,,,sub121_AB,001,2026-02-01_16h01.46.910,recognitionstage,,2025.1.1,59.95656746270239,2026-02-01 16h02.47.295445 +0530,
,,,16,16,0,38,frames\Vid38_EM_T.png,frames\Vid38_L.png,['r'],1,[5.352155000000494],[None],1,0.9833140999999159,,,,,0,16,16,37,1746.2432562999993,,24,Male,Right handed,Normal,,,,,,,,,,,,,,,,,,,,,,,,,,,,,,,,,,,,,,,,1746.2218865000004,1746.2432562999993,1746.2432562999993,1746.2432562999993,1746.2432562999993,1746.2432562999993,1746.2432562999993,1751.6115581000004,['r'],1,[5.352155000000494],[None],1751.6123675999997,1751.6271499000004,1751.6271499000004,1751.6271499000004,1752.6111204,1,0.9833140999999159,1,0.9833140999999159,,,,,,,,sub121_AB,001,2026-02-01_16h01.46.910,recognitionstage,,2025.1.1,59.95656746270239,2026-02-01 16h02.47.295445 +0530,
,,,17,17,0,3,frames\Vid3_BB_T.png,frames\Vid3_L.png,['r'],1,[2.1026677999998356],[None],5,0.9819129999996221,,,,,0,17,17,2,1752.6607845999997,,24,Male,Right handed,Normal,,,,,,,,,,,,,,,,,,,,,,,,,,,,,,,,,,,,,,,,1752.6502398999992,1752.6607845999997,1752.6607845999997,1752.6607845999997,1752.6607845999997,1752.6607845999997,1752.6607845999997,1754.7790818000003,['r'],1,[2.1026677999998356],[None],1754.779921799999,1754.7935893000003,1754.7935893000003,1754.7935893000003,1755.7784545000004,5,0.9819129999996221,5,0.9819129999996221,,,,,,,,sub121_AB,001,2026-02-01_16h01.46.910,recognitionstage,,2025.1.1,59.95656746270239,2026-02-01 16h02.47.295445 +0530,
,,,18,18,0,11,frames\Vid11_EM_T.png,frames\Vid11_L.png,['l'],1,[2.7248936999985744],[None],5,0.7331212000008236,,,,,0,18,18,10,1755.8464054999995,,24,Male,Right handed,Normal,,,,,,,,,,,,,,,,,,,,,,,,,,,,,,,,,,,,,,,,1755.8246673000003,1755.8464054999995,1755.8464054999995,1755.8464054999995,1755.8464054999995,1755.8464054999995,1755.8464054999995,1758.5781564,['l'],1,[2.7248936999985744],[None],1758.5788691000007,1758.5937948,1758.5937948,1758.5937948,1759.3285136000004,5,0.7331212000008236,5,0.7331212000008236,,,,,,,,sub121_AB,001,2026-02-01_16h01.46.910,recognitionstage,,2025.1.1,59.95656746270239,2026-02-01 16h02.47.295445 +0530,
,,,19,19,0,7,frames\Vid7_EM_T.png,frames\Vid7_L.png,['r'],1,[4.615130000000136],[None],5,0.4981582000000344,,,,,0,19,19,6,1759.3962922,,24,Male,Right handed,Normal,,,,,,,,,,,,,,,,,,,,,,,,,,,,,,,,,,,,,,,,1759.3800170999993,1759.3962922,1759.3962922,1759.3962922,1759.3962922,1759.3962922,1759.3962922,1764.012542899999,['r'],1,[4.615130000000136],[None],1764.0134162999993,1764.0267414,1764.0267414,1764.0267414,1764.5278666999993,5,0.4981582000000344,5,0.4981582000000344,,,,,,,,sub121_AB,001,2026-02-01_16h01.46.910,recognitionstage,,2025.1.1,59.95656746270239,2026-02-01 16h02.47.295445 +0530,
,,,20,20,0,35,frames\Vid35_EM_T.png,frames\Vid35_L.png,['r'],1,[3.687000200001421],[None],5,0.3471747999992658,,,,,0,20,20,34,1764.5483560999992,,24,Male,Right handed,Normal,,,,,,,,,,,,,,,,,,,,,,,,,,,,,,,,,,,,,,,,1764.5368974000003,1764.5483560999992,1764.5483560999992,1764.5483560999992,1764.5483560999992,1764.5483560999992,1764.5483560999992,1768.2463056999995,['r'],1,[3.687000200001421],[None],1768.2472451000003,1768.2600840000005,1768.2600840000005,1768.2600840000005,1768.611918399999,5,0.3471747999992658,5,0.3471747999992658,,,,,,,,sub121_AB,001,2026-02-01_16h01.46.910,recognitionstage,,2025.1.1,59.95656746270239,2026-02-01 16h02.47.295445 +0530,
,,,21,21,0,29,frames\Vid29_BB_T.png,frames\Vid29_L.png,['r'],1,[3.280019599998923],[None],5,0.4984722999997757,,,,,0,21,21,28,1768.6434538000003,,24,Male,Right handed,Normal,,,,,,,,,,,,,,,,,,,,,,,,,,,,,,,,,,,,,,,,1768.6242512,1768.6434538000003,1768.6434538000003,1768.6434538000003,1768.6434538000003,1768.6434538000003,1768.6434538000003,1771.9291304000008,['r'],1,[3.280019599998923],[None],1771.9300498000002,1771.9434525000006,1771.9434525000006,1771.9434525000006,1772.4447725,5,0.4984722999997757,5,0.4984722999997757,,,,,,,,sub121_AB,001,2026-02-01_16h01.46.910,recognitionstage,,2025.1.1,59.95656746270239,2026-02-01 16h02.47.295445 +0530,
,,,22,22,0,36,frames\Vid36_BB_T.png,frames\Vid36_L.png,['l'],0,[2.758547199999157],[None],3,0.9304852000004757,,,,,0,22,22,35,1772.4768185000003,,24,Male,Right handed,Normal,,,,,,,,,,,,,,,,,,,,,,,,,,,,,,,,,,,,,,,,1772.4581134999999,1772.4768185000003,1772.4768185000003,1772.4768185000003,1772.4768185000003,1772.4768185000003,1772.4768185000003,1775.2461400999991,['l'],0,[2.758547199999157],[None],1775.2472272000005,1775.2604020999997,1775.2604020999997,1775.2604020999997,1776.1952255000006,3,0.9304852000004757,3,0.9304852000004757,,,,,,,,sub121_AB,001,2026-02-01_16h01.46.910,recognitionstage,,2025.1.1,59.95656746270239,2026-02-01 16h02.47.295445 +0530,
,,,23,23,0,9,frames\Vid9_EM_T.png,frames\Vid9_L.png,['l'],1,[2.775181999999404],[None],2,0.7829058000006626,,,,,0,23,23,8,1776.2440751000004,,24,Male,Right handed,Normal,,,,,,,,,,,,,,,,,,,,,,,,,,,,,,,,,,,,,,,,1776.2328523999995,1776.2440751000004,1776.2440751000004,1776.2440751000004,1776.2440751000004,1776.2440751000004,1776.2440751000004,1779.0278375999997,['l'],1,[2.775181999999404],[None],1779.0283095999994,1779.0432785999992,1779.0432785999992,1779.0432785999992,1779.8285566999994,2,0.7829058000006626,2,0.7829058000006626,,,,,,,,sub121_AB,001,2026-02-01_16h01.46.910,recognitionstage,,2025.1.1,59.95656746270239,2026-02-01 16h02.47.295445 +0530,
,,,24,24,0,13,frames\Vid13_BB_T.png,frames\Vid13_L.png,['r'],0,[2.619469499999468],[None],4,1.463692200000878,,,,,0,24,24,12,1779.8799938000002,,24,Male,Right handed,Normal,,,,,,,,,,,,,,,,,,,,,,,,,,,,,,,,,,,,,,,,1779.8645160999995,1779.8799938000002,1779.8799938000002,1779.8799938000002,1779.8799938000002,1779.8799938000002,1779.8799938000002,1782.5129984999994,['r'],0,[2.619469499999468],[None],1782.5141075000001,1782.5421008000003,1782.5421008000003,1782.5421008000003,1783.9945591000005,4,1.463692200000878,4,1.463692200000878,,,,,,,,sub121_AB,001,2026-02-01_16h01.46.910,recognitionstage,,2025.1.1,59.95656746270239,2026-02-01 16h02.47.295445 +0530,
,,,25,25,0,5,frames\Vid5_EM_T.png,frames\Vid5_L.png,['l'],1,[8.109264599999733],[None],4,1.1297832999989623,,,,,0,25,25,4,1784.0463014000006,,24,Male,Right handed,Normal,,,,,,,,,,,,,,,,,,,,,,,,,,,,,,,,,,,,,,,,1784.0245946000005,1784.0463014000006,1784.0463014000006,1784.0463014000006,1784.0463014000006,1784.0463014000006,1784.0463014000006,1792.1635491999996,['l'],1,[8.109264599999733],[None],1792.1646145999994,1792.1918469000002,1792.1918469000002,1792.1918469000002,1793.3115045999994,4,1.1297832999989623,4,1.1297832999989623,,,,,,,,sub121_AB,001,2026-02-01_16h01.46.910,recognitionstage,,2025.1.1,59.95656746270239,2026-02-01 16h02.47.295445 +0530,
,,,26,26,0,1,frames\Vid1_EM_T.png,frames\Vid1_L.png,['l'],1,[2.3362520999999106],[None],5,1.1459608000004664,,,,,0,26,26,0,1793.3792050000002,,24,Male,Right handed,Normal,,,,,,,,,,,,,,,,,,,,,,,,,,,,,,,,,,,,,,,,1793.3577787999993,1793.3792050000002,1793.3792050000002,1793.3792050000002,1793.3792050000002,1793.3792050000002,1793.3792050000002,1795.7305719999995,['l'],1,[2.3362520999999106],[None],1795.731913999999,1795.743713499999,1795.743713499999,1795.743713499999,1796.895227599999,5,1.1459608000004664,5,1.1459608000004664,,,,,,,,sub121_AB,001,2026-02-01_16h01.46.910,recognitionstage,,2025.1.1,59.95656746270239,2026-02-01 16h02.47.295445 +0530,
,,,27,27,0,12,frames\Vid12_EM_T.png,frames\Vid12_L.png,['l'],1,[4.8233313000000635],[None],5,0.6489810000002763,,,,,0,27,27,11,1796.9640764000005,,24,Male,Right handed,Normal,,,,,,,,,,,,,,,,,,,,,,,,,,,,,,,,,,,,,,,,1796.9467809999996,1796.9640764000005,1796.9640764000005,1796.9640764000005,1796.9640764000005,1796.9640764000005,1796.9640764000005,1801.7950716000005,['l'],1,[4.8233313000000635],[None],1801.7959951999992,1801.8106201,1801.8106201,1801.8106201,1802.4614200999995,5,0.6489810000002763,5,0.6489810000002763,,,,,,,,sub121_AB,001,2026-02-01_16h01.46.910,recognitionstage,,2025.1.1,59.95656746270239,2026-02-01 16h02.47.295445 +0530,
,,,28,28,0,28,frames\Vid28_EM_T.png,frames\Vid28_L.png,['r'],1,[2.9628900999996404],[None],5,0.48207779999938793,,,,,0,28,28,27,1802.496538299999,,24,Male,Right handed,Normal,,,,,,,,,,,,,,,,,,,,,,,,,,,,,,,,,,,,,,,,1802.472278799999,1802.496538299999,1802.496538299999,1802.496538299999,1802.496538299999,1802.496538299999,1802.496538299999,1805.4619439999997,['r'],1,[2.9628900999996404],[None],1805.4628872999992,1805.4776482000007,1805.4776482000007,1805.4776482000007,1805.9611974999998,5,0.48207779999938793,5,0.48207779999938793,,,,,,,,sub121_AB,001,2026-02-01_16h01.46.910,recognitionstage,,2025.1.1,59.95656746270239,2026-02-01 16h02.47.295445 +0530,
,,,29,29,0,26,frames\Vid26_EM_T.png,frames\Vid26_L.png,['r'],1,[2.401982400000634],[None],5,0.34701400000085414,,,,,0,29,29,25,1805.9936773,,24,Male,Right handed,Normal,,,,,,,,,,,,,,,,,,,,,,,,,,,,,,,,,,,,,,,,1805.9771059999994,1805.9936773,1805.9936773,1805.9936773,1805.9936773,1805.9936773,1805.9936773,1808.4128850999996,['r'],1,[2.401982400000634],[None],1808.4140865,1808.4269562,1808.4269562,1808.4269562,1808.7779125999996,5,0.34701400000085414,5,0.34701400000085414,,,,,,,,sub121_AB,001,2026-02-01_16h01.46.910,recognitionstage,,2025.1.1,59.95656746270239,2026-02-01 16h02.47.295445 +0530,
,,,30,30,0,23,frames\Vid23_EM_T.png,frames\Vid23_L.png,['l'],1,[2.6890282000003936],[None],5,0.3822976000010385,,,,,0,30,30,22,1808.8103693999992,,24,Male,Right handed,Normal,,,,,,,,,,,,,,,,,,,,,,,,,,,,,,,,,,,,,,,,1808.7938772999996,1808.8103693999992,1808.8103693999992,1808.8103693999992,1808.8103693999992,1808.8103693999992,1808.8103693999992,1811.5123587999997,['l'],1,[2.6890282000003936],[None],1811.5133835999995,1811.527214499999,1811.527214499999,1811.527214499999,1811.9108031999995,5,0.3822976000010385,5,0.3822976000010385,,,,,,,,sub121_AB,001,2026-02-01_16h01.46.910,recognitionstage,,2025.1.1,59.95656746270239,2026-02-01 16h02.47.295445 +0530,
,,,31,31,0,16,frames\Vid16_EM_T.png,frames\Vid16_L.png,['r'],0,[5.538141099999848],[None],3,0.8987035999998625,,,,,0,31,31,15,1811.9612795000003,,24,Male,Right handed,Normal,,,,,,,,,,,,,,,,,,,,,,,,,,,,,,,,,,,,,,,,1811.9508770000002,1811.9612795000003,1811.9612795000003,1811.9612795000003,1811.9612795000003,1811.9612795000003,1811.9612795000003,1817.5127693000004,['r'],0,[5.538141099999848],[None],1817.5136670000002,1817.5267684,1817.5267684,1817.5267684,1818.4278829000004,3,0.8987035999998625,3,0.8987035999998625,,,,,,,,sub121_AB,001,2026-02-01_16h01.46.910,recognitionstage,,2025.1.1,59.95656746270239,2026-02-01 16h02.47.295445 +0530,
,,,32,32,0,10,frames\Vid10_BB_T.png,frames\Vid10_L.png,['r'],1,[2.6430912999985594],[None],4,1.1461804999999003,,,,,0,32,32,9,1818.4803987000005,,24,Male,Right handed,Normal,,,,,,,,,,,,,,,,,,,,,,,,,,,,,,,,,,,,,,,,1818.4703010999992,1818.4803987000005,1818.4803987000005,1818.4803987000005,1818.4803987000005,1818.4803987000005,1818.4803987000005,1821.1304943999994,['r'],1,[2.6430912999985594],[None],1821.1316649999999,1821.1434980000004,1821.1434980000004,1821.1434980000004,1822.2953303999993,4,1.1461804999999003,4,1.1461804999999003,,,,,,,,sub121_AB,001,2026-02-01_16h01.46.910,recognitionstage,,2025.1.1,59.95656746270239,2026-02-01 16h02.47.295445 +0530,
,,,33,33,0,25,frames\Vid25_BB_T.png,frames\Vid25_L.png,['r'],1,[4.697111200001018],[None],4,0.5156244999998307,,,,,0,33,33,24,1822.3302505000001,,24,Male,Right handed,Normal,,,,,,,,,,,,,,,,,,,,,,,,,,,,,,,,,,,,,,,,1822.3089499000007,1822.3302505000001,1822.3302505000001,1822.3302505000001,1822.3302505000001,1822.3302505000001,1822.3302505000001,1827.0285147999994,['r'],1,[4.697111200001018],[None],1827.029298299999,1827.0440045000005,1827.0440045000005,1827.0440045000005,1827.5613182000006,4,0.5156244999998307,4,0.5156244999998307,,,,,,,,sub121_AB,001,2026-02-01_16h01.46.910,recognitionstage,,2025.1.1,59.95656746270239,2026-02-01 16h02.47.295445 +0530,
,,,34,34,0,24,frames\Vid24_BB_T.png,frames\Vid24_L.png,['l'],1,[4.233734799998274],[None],5,0.8649055000005319,,,,,0,34,34,23,1827.5936092999991,,24,Male,Right handed,Normal,,,,,,,,,,,,,,,,,,,,,,,,,,,,,,,,,,,,,,,,1827.5758441000007,1827.5936092999991,1827.5936092999991,1827.5936092999991,1827.5936092999991,1827.5936092999991,1827.5936092999991,1831.8287303999996,['l'],1,[4.233734799998274],[None],1831.8296510999999,1831.8438663999996,1831.8438663999996,1831.8438663999996,1832.7117903999997,5,0.8649055000005319,5,0.8649055000005319,,,,,,,,sub121_AB,001,2026-02-01_16h01.46.910,recognitionstage,,2025.1.1,59.95656746270239,2026-02-01 16h02.47.295445 +0530,
,,,35,35,0,4,frames\Vid4_EM_T.png,frames\Vid4_L.png,['r'],0,[7.922107499998674],[None],5,0.42963030000100844,,,,,0,35,35,3,1832.7774008000006,,24,Male,Right handed,Normal,,,,,,,,,,,,,,,,,,,,,,,,,,,,,,,,,,,,,,,,1832.7579204000003,1832.7774008000006,1832.7774008000006,1832.7774008000006,1832.7774008000006,1832.7774008000006,1832.7774008000006,1840.7135222000006,['r'],0,[7.922107499998674],[None],1840.7150468999998,1840.727361799999,1840.727361799999,1840.727361799999,1841.1615823999991,5,0.42963030000100844,5,0.42963030000100844,,,,,,,,sub121_AB,001,2026-02-01_16h01.46.910,recognitionstage,,2025.1.1,59.95656746270239,2026-02-01 16h02.47.295445 +0530,
,,,36,36,0,18,frames\Vid18_EM_T.png,frames\Vid18_L.png,['l'],1,[2.8629182999993645],[None],4,0.5820688999992853,,,,,0,36,36,17,1841.1965451999995,,24,Male,Right handed,Normal,,,,,,,,,,,,,,,,,,,,,,,,,,,,,,,,,,,,,,,,1841.1758220000002,1841.1965451999995,1841.1965451999995,1841.1965451999995,1841.1965451999995,1841.1965451999995,1841.1965451999995,1844.0628738999994,['l'],1,[2.8629182999993645],[None],1844.063865699999,1844.0774384000006,1844.0774384000006,1844.0774384000006,1844.6613965000006,4,0.5820688999992853,4,0.5820688999992853,,,,,,,,sub121_AB,001,2026-02-01_16h01.46.910,recognitionstage,,2025.1.1,59.95656746270239,2026-02-01 16h02.47.295445 +0530,
,,,37,37,0,37,frames\Vid37_BB_T.png,frames\Vid37_L.png,['r'],1,[2.9656087000003026],[None],5,1.4168245000000752,,,,,0,37,37,36,1844.6938471999993,,24,Male,Right handed,Normal,,,,,,,,,,,,,,,,,,,,,,,,,,,,,,,,,,,,,,,,1844.6753433000003,1844.6938471999993,1844.6938471999993,1844.6938471999993,1844.6938471999993,1844.6938471999993,1844.6938471999993,1847.6620544000007,['r'],1,[2.9656087000003026],[None],1847.6629428999995,1847.6773734999997,1847.6773734999997,1847.6773734999997,1849.0945177000003,5,1.4168245000000752,5,1.4168245000000752,,,,,,,,sub121_AB,001,2026-02-01_16h01.46.910,recognitionstage,,2025.1.1,59.95656746270239,2026-02-01 16h02.47.295445 +0530,
,,,38,38,0,21,frames\Vid21_BB_T.png,frames\Vid21_L.png,['r'],1,[5.220488799999657],[None],5,0.43229860000064946,,,,,0,38,38,20,1849.1268019999998,,24,Male,Right handed,Normal,,,,,,,,,,,,,,,,,,,,,,,,,,,,,,,,,,,,,,,,1849.1065950999991,1849.1268019999998,1849.1268019999998,1849.1268019999998,1849.1268019999998,1849.1268019999998,1849.1268019999998,1854.3614759999991,['r'],1,[5.220488799999657],[None],1854.3620299999993,1854.3773549000007,1854.3773549000007,1854.3773549000007,1854.8119173999994,5,0.43229860000064946,5,0.43229860000064946,,,,,,,,sub121_AB,001,2026-02-01_16h01.46.910,recognitionstage,,2025.1.1,59.95656746270239,2026-02-01 16h02.47.295445 +0530,
,,,39,39,0,6,frames\Vid6_BB_T.png,frames\Vid6_L.png,['l'],1,[5.502016899999944],[None],5,0.4647515000015119,,,,,0,39,39,5,1854.8775720999993,,24,Male,Right handed,Normal,,,,,,,,,,,,,,,,,,,,,,,,,,,,,,,,,,,,,,,,1854.8554608999993,1854.8775720999993,1854.8775720999993,1854.8775720999993,1854.8775720999993,1854.8775720999993,1854.8775720999993,1860.3963214000005,['l'],1,[5.502016899999944],[None],1860.397179999999,1860.410280699999,1860.410280699999,1860.410280699999,1860.8776227000008,5,0.4647515000015119,5,0.4647515000015119,,,,,,,,sub121_AB,001,2026-02-01_16h01.46.910,recognitionstage,,2025.1.1,59.95656746270239,2026-02-01 16h02.47.295445 +0530,
,,,,,,,,,,,,,,,,,,,,,,,,,24,Male,Right handed,Normal,,,,,,,,,,,,,,,,,,,,,,,,,,,,,,,,,,,,,,,,,,,,,,,,,,,,,,,,,,,,,1860.8777371000006,1860.894712799999,1860.894712799999,1863.0290262999997,space,2.1327068000009604,None,sub121_AB,001,2026-02-01_16h01.46.910,recognitionstage,,2025.1.1,59.95656746270239,2026-02-01 16h02.47.295445 +0530,
