path,duration,is_repeat,thisN,thisTrialN,thisRepN,movie_id,target_img,lure_img,resp.keys,resp.corr,resp.rt,resp.duration,conf_radio.response,conf_radio.rt,movie.thisRepN,movie.thisTrialN,movie.thisN,movie.thisIndex,recogloop.thisRepN,recogloop.thisTrialN,recogloop.thisN,recogloop.thisIndex,thisRow.t,notes,age,gender,handedness,vision,caffeine_2h,alcohol_smoke_12h,demographics.started,demographics.stopped,Instructions.started,text1.started,key_resp.started,Instructions.stopped,key_resp.keys,key_resp.rt,key_resp.duration,instruction_2.started,text2.started,key_resp_2.started,instruction_2.stopped,key_resp_2.keys,key_resp_2.rt,key_resp_2.duration,Videos.started,movie_2.started,vigilance_resp.started,movie_2.stopped,Videos.stopped,movie.vigilance_resp.keys,vigilance_pressed,vigilance_correct,ISI.started,text.started,ISI.stopped,text.stopped,movie.vigilance_resp.rt,movie.vigilance_resp.duration,recognition.started,text_4.started,key_resp_3.started,recognition.stopped,key_resp_3.keys,key_resp_3.rt,key_resp_3.duration,recognition_task.started,leftimage.started,rightimage.started,resp.started,frames_question.started,right_label.started,left_label.started,recognition_task.stopped,recogloop.resp.keys,recogloop.resp.corr,recogloop.resp.rt,recogloop.resp.duration,confidence.started,conf_text.started,conf_radio.started,conf_label.started,confidence.stopped,recogloop.conf_radio.response,recogloop.conf_radio.rt,confidence,confidence_rt,thank_you.started,text_6.started,key_resp_4.started,participant,session,date,expName,expVersion,psychopyVersion,frameRate,expStart,...101
,,,,,,,,,,,,,,,,,,,,,,,,,20,Female,Right handed,Corrected to normal,Caffeine consumed in last 2 hours?,Alcohol or smoking in last 12 hours?,0.019777499954216182,0.022177499951794744,,,,,,,,,,,,,,,,,,,,,,,,,,,,,,,,,,,,,,,,,,,,,,,,,,,,,,,,,,,,sub_113AB,001,2026-01-31_17h28.29.335,recognitionstage,,2025.1.1,59.9743669558746,2026-01-31 17h29.16.936025 +0530,
,,,,,,,,,,,,,,,,,,,,,,,,,20,Female,Right handed,Corrected to normal,,,,,0.02219999994849786,0.03884899994591251,0.03884899994591251,9.79014219995588,space,9.744345200015232,None,,,,,,,,,,,,,,,,,,,,,,,,,,,,,,,,,,,,,,,,,,,,,,,,,,,,,sub_113AB,001,2026-01-31_17h28.29.335,recognitionstage,,2025.1.1,59.9743669558746,2026-01-31 17h29.16.936025 +0530,
,,,,,,,,,,,,,,,,,,,,,,,,,20,Female,Right handed,Corrected to normal,,,,,,,,,,,,9.790192599990405,9.807462599943392,9.807462599943392,20.290661299950443,space,10.479864399996586,None,,,,,,,,,,,,,,,,,,,,,,,,,,,,,,,,,,,,,,,,,,,,,,sub_113AB,001,2026-01-31_17h28.29.335,recognitionstage,,2025.1.1,59.9743669558746,2026-01-31 17h29.16.936025 +0530,
abrupt_videos\abrupt_25.mp4,41,0,44,44,0,,,,,,,,,,0,44,44,27,,,,,1546.2726244999794,,20,Female,Right handed,Corrected to normal,,,,,,,,,,,,,,,,,,,1546.2269502999843,1546.2726244999794,1546.2726244999794,1588.3369131999789,1588.1965001999633,None,0,1,1588.3322588999872,1588.3369131999789,1590.8245918999892,1590.8395292999921,22.651721799978986,None,1590.8246824999806,1590.8395292999921,1590.8395292999921,1611.3240930999746,space,20.471876700001303,None,,,,,,,,,,,,,,,,,,,,,,,,,sub_113AB,001,2026-01-31_17h28.29.335,recognitionstage,,2025.1.1,59.9743669558746,2026-01-31 17h29.16.936025 +0530,
,,,0,0,0,38,frames\Vid38_EM_T.png,frames\Vid38_L.png,['r'],1,[7.67725629999768],[None],4,6.581862699997146,,,,,0,0,0,37,1611.3539011999965,,20,Female,Right handed,Corrected to normal,,,,,,,,,,,,,,,,,,,,,,,,,,,,,,,,,,,,,,,,1611.3408443999942,1611.3539011999965,1611.3539011999965,1611.3539011999965,1611.3539011999965,1611.3539011999965,1611.3539011999965,1619.0412030999432,['r'],1,[7.67725629999768],[None],1619.0418150999467,1619.0552546999534,1619.0552546999534,1619.0552546999534,1625.639616899949,4,6.581862699997146,4,6.581862699997146,,,,sub_113AB,001,2026-01-31_17h28.29.335,recognitionstage,,2025.1.1,59.9743669558746,2026-01-31 17h29.16.936025 +0530,
,,,1,1,0,27,frames\Vid27_BB_T.png,frames\Vid27_L.png,['r'],1,[10.599624800030142],[None],4,2.3977038000011817,,,,,0,1,1,26,1625.6715270999703,,20,Female,Right handed,Corrected to normal,,,,,,,,,,,,,,,,,,,,,,,,,,,,,,,,,,,,,,,,1625.6514654999482,1625.6715270999703,1625.6715270999703,1625.6715270999703,1625.6715270999703,1625.6715270999703,1625.6715270999703,1636.2742309999885,['r'],1,[10.599624800030142],[None],1636.275249899947,1636.288836599968,1636.288836599968,1636.288836599968,1638.68974849995,4,2.3977038000011817,4,2.3977038000011817,,,,sub_113AB,001,2026-01-31_17h28.29.335,recognitionstage,,2025.1.1,59.9743669558746,2026-01-31 17h29.16.936025 +0530,
,,,2,2,0,34,frames\Vid34_BB_T.png,frames\Vid34_L.png,['l'],1,[4.788295199978165],[None],5,2.1470659999758936,,,,,0,2,2,33,1638.7069054999738,,20,Female,Right handed,Corrected to normal,,,,,,,,,,,,,,,,,,,,,,,,,,,,,,,,,,,,,,,,1638.6990450999583,1638.7069054999738,1638.7069054999738,1638.7069054999738,1638.7069054999738,1638.7069054999738,1638.7069054999738,1643.5083415999543,['l'],1,[4.788295199978165],[None],1643.509915499948,1643.5371927999659,1643.5371927999659,1643.5371927999659,1645.6725738999667,5,2.1470659999758936,5,2.1470659999758936,,,,sub_113AB,001,2026-01-31_17h28.29.335,recognitionstage,,2025.1.1,59.9743669558746,2026-01-31 17h29.16.936025 +0530,
,,,3,3,0,13,frames\Vid13_BB_T.png,frames\Vid13_L.png,['r'],0,[7.196662399976049],[None],1,2.798210700042546,,,,,0,3,3,12,1645.7225554999895,,20,Female,Right handed,Corrected to normal,,,,,,,,,,,,,,,,,,,,,,,,,,,,,,,,,,,,,,,,1645.705507799983,1645.7225554999895,1645.7225554999895,1645.7225554999895,1645.7225554999895,1645.7225554999895,1645.7225554999895,1652.924207199947,['r'],0,[7.196662399976049],[None],1652.9252003000001,1652.9387944999617,1652.9387944999617,1652.9387944999617,1655.739714699972,1,2.798210700042546,1,2.798210700042546,,,,sub_113AB,001,2026-01-31_17h28.29.335,recognitionstage,,2025.1.1,59.9743669558746,2026-01-31 17h29.16.936025 +0530,
,,,4,4,0,36,frames\Vid36_BB_T.png,frames\Vid36_L.png,['l'],1,[3.284513600054197],[None],5,2.2126438999548554,,,,,0,4,4,35,1655.7709297999972,,20,Female,Right handed,Corrected to normal,,,,,,,,,,,,,,,,,,,,,,,,,,,,,,,,,,,,,,,,1655.7628294999595,1655.7709297999972,1655.7709297999972,1655.7709297999972,1655.7709297999972,1655.7709297999972,1655.7709297999972,1659.0589180999668,['l'],1,[3.284513600054197],[None],1659.0600991999963,1659.0719244999927,1659.0719244999927,1659.0719244999927,1661.289680099988,5,2.2126438999548554,5,2.2126438999548554,,,,sub_113AB,001,2026-01-31_17h28.29.335,recognitionstage,,2025.1.1,59.9743669558746,2026-01-31 17h29.16.936025 +0530,
,,,5,5,0,1,frames\Vid1_EM_T.png,frames\Vid1_L.png,['r'],1,[9.939072199980728],[None],5,1.430258699983824,,,,,0,5,5,0,1661.356197599962,,20,Female,Right handed,Corrected to normal,,,,,,,,,,,,,,,,,,,,,,,,,,,,,,,,,,,,,,,,1661.3344075999921,1661.356197599962,1661.356197599962,1661.356197599962,1661.356197599962,1661.356197599962,1661.356197599962,1671.3087726999656,['r'],1,[9.939072199980728],[None],1671.3101449999958,1671.3369712999556,1671.3369712999556,1671.3369712999556,1672.7562685000012,5,1.430258699983824,5,1.430258699983824,,,,sub_113AB,001,2026-01-31_17h28.29.335,recognitionstage,,2025.1.1,59.9743669558746,2026-01-31 17h29.16.936025 +0530,
,,,6,6,0,9,frames\Vid9_EM_T.png,frames\Vid9_L.png,['l'],1,[3.5744485000032],[None],5,1.84718119999161,,,,,0,6,6,8,1672.808832199953,,20,Female,Right handed,Corrected to normal,,,,,,,,,,,,,,,,,,,,,,,,,,,,,,,,,,,,,,,,1672.7946407999843,1672.808832199953,1672.808832199953,1672.808832199953,1672.808832199953,1672.808832199953,1672.808832199953,1676.3911200999864,['l'],1,[3.5744485000032],[None],1676.3920961999684,1676.4050872999942,1676.4050872999942,1676.4050872999942,1678.2560540999984,5,1.84718119999161,5,1.84718119999161,,,,sub_113AB,001,2026-01-31_17h28.29.335,recognitionstage,,2025.1.1,59.9743669558746,2026-01-31 17h29.16.936025 +0530,
,,,7,7,0,11,frames\Vid11_EM_T.png,frames\Vid11_L.png,['l'],1,[3.394752799998969],[None],5,1.3987328000366688,,,,,0,7,7,10,1678.3084312999854,,20,Female,Right handed,Corrected to normal,,,,,,,,,,,,,,,,,,,,,,,,,,,,,,,,,,,,,,,,1678.297991899948,1678.3084312999854,1678.3084312999854,1678.3084312999854,1678.3084312999854,1678.3084312999854,1678.3084312999854,1681.7067469999893,['l'],1,[3.394752799998969],[None],1681.7075089999707,1681.7221651999862,1681.7221651999862,1681.7221651999862,1683.1227980999975,5,1.3987328000366688,5,1.3987328000366688,,,,sub_113AB,001,2026-01-31_17h28.29.335,recognitionstage,,2025.1.1,59.9743669558746,2026-01-31 17h29.16.936025 +0530,
,,,8,8,0,22,frames\Vid22_EM_T.png,frames\Vid22_L.png,['l'],1,[4.145410500001162],[None],5,1.3657566999900155,,,,,0,8,8,21,1683.157720899966,,20,Female,Right handed,Corrected to normal,,,,,,,,,,,,,,,,,,,,,,,,,,,,,,,,,,,,,,,,1683.1355110000004,1683.157720899966,1683.157720899966,1683.157720899966,1683.157720899966,1683.157720899966,1683.157720899966,1687.3076279999805,['l'],1,[4.145410500001162],[None],1687.3085007999907,1687.3218917999766,1687.3218917999766,1687.3218917999766,1688.6893207999528,5,1.3657566999900155,5,1.3657566999900155,,,,sub_113AB,001,2026-01-31_17h28.29.335,recognitionstage,,2025.1.1,59.9743669558746,2026-01-31 17h29.16.936025 +0530,
,,,9,9,0,23,frames\Vid23_EM_T.png,frames\Vid23_L.png,['r'],1,[5.013192999991588],[None],2,1.813040999986697,,,,,0,9,9,22,1688.722100199957,,20,Female,Right handed,Corrected to normal,,,,,,,,,,,,,,,,,,,,,,,,,,,,,,,,,,,,,,,,1688.7047826999915,1688.722100199957,1688.722100199957,1688.722100199957,1688.722100199957,1688.722100199957,1688.722100199957,1693.7420745999552,['r'],1,[5.013192999991588],[None],1693.743352999969,1693.7706394999987,1693.7706394999987,1693.7706394999987,1695.5736003999482,2,1.813040999986697,2,1.813040999986697,,,,sub_113AB,001,2026-01-31_17h28.29.335,recognitionstage,,2025.1.1,59.9743669558746,2026-01-31 17h29.16.936025 +0530,
,,,10,10,0,18,frames\Vid18_EM_T.png,frames\Vid18_L.png,['l'],1,[4.513646900013555],[None],2,1.230825199978426,,,,,0,10,10,17,1695.6055785999633,,20,Female,Right handed,Corrected to normal,,,,,,,,,,,,,,,,,,,,,,,,,,,,,,,,,,,,,,,,1695.5843676999793,1695.6055785999633,1695.6055785999633,1695.6055785999633,1695.6055785999633,1695.6055785999633,1695.6055785999633,1700.124722699984,['l'],1,[4.513646900013555],[None],1700.1258132999646,1700.1387011999614,1700.1387011999614,1700.1387011999614,1701.372265999962,2,1.230825199978426,2,1.230825199978426,,,,sub_113AB,001,2026-01-31_17h28.29.335,recognitionstage,,2025.1.1,59.9743669558746,2026-01-31 17h29.16.936025 +0530,
,,,11,11,0,16,frames\Vid16_EM_T.png,frames\Vid16_L.png,['l'],0,[6.712411499989685],[None],3,2.2320637999800965,,,,,0,11,11,15,1701.4230034999782,,20,Female,Right handed,Corrected to normal,,,,,,,,,,,,,,,,,,,,,,,,,,,,,,,,,,,,,,,,1701.4113904999685,1701.4230034999782,1701.4230034999782,1701.4230034999782,1701.4230034999782,1701.4230034999782,1701.4230034999782,1708.1411399999633,['l'],0,[6.712411499989685],[None],1708.1416981999646,1708.155349699955,1708.155349699955,1708.155349699955,1710.389154399978,3,2.2320637999800965,3,2.2320637999800965,,,,sub_113AB,001,2026-01-31_17h28.29.335,recognitionstage,,2025.1.1,59.9743669558746,2026-01-31 17h29.16.936025 +0530,
,,,12,12,0,25,frames\Vid25_BB_T.png,frames\Vid25_L.png,['r'],1,[5.900789799983613],[None],5,1.8640351999783888,,,,,0,12,12,24,1710.410455599951,,20,Female,Right handed,Corrected to normal,,,,,,,,,,,,,,,,,,,,,,,,,,,,,,,,,,,,,,,,1710.3988184999907,1710.410455599951,1710.410455599951,1710.410455599951,1710.410455599951,1710.410455599951,1710.410455599951,1716.324169999978,['r'],1,[5.900789799983613],[None],1716.3252805999946,1716.339007099974,1716.339007099974,1716.339007099974,1718.2061545999604,5,1.8640351999783888,5,1.8640351999783888,,,,sub_113AB,001,2026-01-31_17h28.29.335,recognitionstage,,2025.1.1,59.9743669558746,2026-01-31 17h29.16.936025 +0530,
,,,13,13,0,24,frames\Vid24_BB_T.png,frames\Vid24_L.png,['l'],1,[5.048287599987816],[None],5,1.6804438999970444,,,,,0,13,13,23,1718.2388215999817,,20,Female,Right handed,Corrected to normal,,,,,,,,,,,,,,,,,,,,,,,,,,,,,,,,,,,,,,,,1718.2179606999853,1718.2388215999817,1718.2388215999817,1718.2388215999817,1718.2388215999817,1718.2388215999817,1718.2388215999817,1723.2915408999543,['l'],1,[5.048287599987816],[None],1723.2925322999945,1723.3052155999467,1723.3052155999467,1723.3052155999467,1724.989951299969,5,1.6804438999970444,5,1.6804438999970444,,,,sub_113AB,001,2026-01-31_17h28.29.335,recognitionstage,,2025.1.1,59.9743669558746,2026-01-31 17h29.16.936025 +0530,
,,,14,14,0,40,frames\Vid40_EM_T.png,frames\Vid40_L.png,['r'],1,[4.168038900010288],[None],4,1.0316903999773785,,,,,0,14,14,39,1725.0071155999904,,20,Female,Right handed,Corrected to normal,,,,,,,,,,,,,,,,,,,,,,,,,,,,,,,,,,,,,,,,1724.9976619999507,1725.0071155999904,1725.0071155999904,1725.0071155999904,1725.0071155999904,1725.0071155999904,1725.0071155999904,1729.1907194999512,['r'],1,[4.168038900010288],[None],1729.1915603999514,1729.2055824999698,1729.2055824999698,1729.2055824999698,1730.239782599965,4,1.0316903999773785,4,1.0316903999773785,,,,sub_113AB,001,2026-01-31_17h28.29.335,recognitionstage,,2025.1.1,59.9743669558746,2026-01-31 17h29.16.936025 +0530,
,,,15,15,0,31,frames\Vid31_EM_T.png,frames\Vid31_L.png,['l'],1,[3.0058838999830186],[None],5,1.0642675999552011,,,,,0,15,15,30,1730.2572152999928,,20,Female,Right handed,Corrected to normal,,,,,,,,,,,,,,,,,,,,,,,,,,,,,,,,,,,,,,,,1730.2496243999922,1730.2572152999928,1730.2572152999928,1730.2572152999928,1730.2572152999928,1730.2572152999928,1730.2572152999928,1733.2741961999564,['l'],1,[3.0058838999830186],[None],1733.2752483999939,1733.2890084999963,1733.2890084999963,1733.2890084999963,1734.3568388999556,5,1.0642675999552011,5,1.0642675999552011,,,,sub_113AB,001,2026-01-31_17h28.29.335,recognitionstage,,2025.1.1,59.9743669558746,2026-01-31 17h29.16.936025 +0530,
,,,16,16,0,39,frames\Vid39_BB_T.png,frames\Vid39_L.png,['r'],0,[3.585650800028816],[None],3,2.031336099957116,,,,,0,16,16,38,1734.3735696999938,,20,Female,Right handed,Corrected to normal,,,,,,,,,,,,,,,,,,,,,,,,,,,,,,,,,,,,,,,,1734.3651077999966,1734.3735696999938,1734.3735696999938,1734.3735696999938,1734.3735696999938,1734.3735696999938,1734.3735696999938,1737.974547699967,['r'],0,[3.585650800028816],[None],1737.9756599999964,1737.9888526999857,1737.9888526999857,1737.9888526999857,1740.0233448999934,3,2.031336099957116,3,2.031336099957116,,,,sub_113AB,001,2026-01-31_17h28.29.335,recognitionstage,,2025.1.1,59.9743669558746,2026-01-31 17h29.16.936025 +0530,
,,,17,17,0,20,frames\Vid20_EM_T.png,frames\Vid20_L.png,['l'],1,[3.0315080000436865],[None],4,0.8818524000234902,,,,,0,17,17,19,1740.0401697999914,,20,Female,Right handed,Corrected to normal,,,,,,,,,,,,,,,,,,,,,,,,,,,,,,,,,,,,,,,,1740.0302191999508,1740.0401697999914,1740.0401697999914,1740.0401697999914,1740.0401697999914,1740.0401697999914,1740.0401697999914,1743.0743149999762,['l'],1,[3.0315080000436865],[None],1743.0752983999555,1743.0889366999618,1743.0889366999618,1743.0889366999618,1743.9730904999888,4,0.8818524000234902,4,0.8818524000234902,,,,sub_113AB,001,2026-01-31_17h28.29.335,recognitionstage,,2025.1.1,59.9743669558746,2026-01-31 17h29.16.936025 +0530,
,,,18,18,0,8,frames\Vid8_BB_T.png,frames\Vid8_L.png,['l'],1,[5.408473999996204],[None],5,1.0646047000191174,,,,,0,18,18,7,1744.0227343000006,,20,Female,Right handed,Corrected to normal,,,,,,,,,,,,,,,,,,,,,,,,,,,,,,,,,,,,,,,,1744.0111720999703,1744.0227343000006,1744.0227343000006,1744.0227343000006,1744.0227343000006,1744.0227343000006,1744.0227343000006,1749.4415304999566,['l'],1,[5.408473999996204],[None],1749.4426237999578,1749.4552728999988,1749.4552728999988,1749.4552728999988,1750.522988099954,5,1.0646047000191174,5,1.0646047000191174,,,,sub_113AB,001,2026-01-31_17h28.29.335,recognitionstage,,2025.1.1,59.9743669558746,2026-01-31 17h29.16.936025 +0530,
,,,19,19,0,10,frames\Vid10_BB_T.png,frames\Vid10_L.png,['l'],1,[5.383393800002523],[None],1,1.3979167999932542,,,,,0,19,19,9,1750.5920122999814,,20,Female,Right handed,Corrected to normal,,,,,,,,,,,,,,,,,,,,,,,,,,,,,,,,,,,,,,,,1750.5674987999955,1750.5920122999814,1750.5920122999814,1750.5920122999814,1750.5920122999814,1750.5920122999814,1750.5920122999814,1755.9906039999914,['l'],1,[5.383393800002523],[None],1755.9917986999499,1756.005706899974,1756.005706899974,1756.005706899974,1757.4068200999754,1,1.3979167999932542,1,1.3979167999932542,,,,sub_113AB,001,2026-01-31_17h28.29.335,recognitionstage,,2025.1.1,59.9743669558746,2026-01-31 17h29.16.936025 +0530,
,,,20,20,0,35,frames\Vid35_EM_T.png,frames\Vid35_L.png,['r'],1,[5.29257350001717],[None],2,1.3485866999835707,,,,,0,20,20,34,1757.4268135999446,,20,Female,Right handed,Corrected to normal,,,,,,,,,,,,,,,,,,,,,,,,,,,,,,,,,,,,,,,,1757.4165186999599,1757.4268135999446,1757.4268135999446,1757.4268135999446,1757.4268135999446,1757.4268135999446,1757.4268135999446,1762.7243900999893,['r'],1,[5.29257350001717],[None],1762.7254639999592,1762.7537623999524,1762.7537623999524,1762.7537623999524,1764.0896000999492,2,1.3485866999835707,2,1.3485866999835707,,,,sub_113AB,001,2026-01-31_17h28.29.335,recognitionstage,,2025.1.1,59.9743669558746,2026-01-31 17h29.16.936025 +0530,
,,,21,21,0,14,frames\Vid14_BB_T.png,frames\Vid14_L.png,['l'],1,[3.4674881999962963],[None],1,1.4819284999975935,,,,,0,21,21,13,1764.1557702999562,,20,Female,Right handed,Corrected to normal,,,,,,,,,,,,,,,,,,,,,,,,,,,,,,,,,,,,,,,,1764.1357608999824,1764.1557702999562,1764.1557702999562,1764.1557702999562,1764.1557702999562,1764.1557702999562,1764.1557702999562,1767.624318999995,['l'],1,[3.4674881999962963],[None],1767.6252003999543,1767.6391673999606,1767.6391673999606,1767.6391673999606,1769.1230753999553,1,1.4819284999975935,1,1.4819284999975935,,,,sub_113AB,001,2026-01-31_17h28.29.335,recognitionstage,,2025.1.1,59.9743669558746,2026-01-31 17h29.16.936025 +0530,
,,,22,22,0,21,frames\Vid21_BB_T.png,frames\Vid21_L.png,['r'],1,[6.609349099977408],[None],4,1.06578800000716,,,,,0,22,22,20,1769.157964199956,,20,Female,Right handed,Corrected to normal,,,,,,,,,,,,,,,,,,,,,,,,,,,,,,,,,,,,,,,,1769.1361653999775,1769.157964199956,1769.157964199956,1769.157964199956,1769.157964199956,1769.157964199956,1769.157964199956,1775.774234499957,['r'],1,[6.609349099977408],[None],1775.7751719999942,1775.788936899975,1775.788936899975,1775.788936899975,1776.8561269999482,4,1.06578800000716,4,1.06578800000716,,,,sub_113AB,001,2026-01-31_17h28.29.335,recognitionstage,,2025.1.1,59.9743669558746,2026-01-31 17h29.16.936025 +0530,
,,,23,23,0,29,frames\Vid29_BB_T.png,frames\Vid29_L.png,['l'],1,[3.3984126999857835],[None],2,1.5987119000055827,,,,,0,23,23,28,1776.8888804999879,,20,Female,Right handed,Corrected to normal,,,,,,,,,,,,,,,,,,,,,,,,,,,,,,,,,,,,,,,,1776.8685927999904,1776.8888804999879,1776.8888804999879,1776.8888804999879,1776.8888804999879,1776.8888804999879,1776.8888804999879,1780.2904357999796,['l'],1,[3.3984126999857835],[None],1780.2913879999542,1780.3055725999875,1780.3055725999875,1780.3055725999875,1781.9068294999888,2,1.5987119000055827,2,1.5987119000055827,,,,sub_113AB,001,2026-01-31_17h28.29.335,recognitionstage,,2025.1.1,59.9743669558746,2026-01-31 17h29.16.936025 +0530,
,,,24,24,0,19,frames\Vid19_BB_T.png,frames\Vid19_L.png,['r'],1,[7.324432199995499],[None],1,1.3975463000242598,,,,,0,24,24,18,1781.9387886999757,,20,Female,Right handed,Corrected to normal,,,,,,,,,,,,,,,,,,,,,,,,,,,,,,,,,,,,,,,,1781.9184354999452,1781.9387886999757,1781.9387886999757,1781.9387886999757,1781.9387886999757,1781.9387886999757,1781.9387886999757,1789.274351799977,['r'],1,[7.324432199995499],[None],1789.2754283999675,1789.2887903999654,1789.2887903999654,1789.2887903999654,1790.6903208000003,1,1.3975463000242598,1,1.3975463000242598,,,,sub_113AB,001,2026-01-31_17h28.29.335,recognitionstage,,2025.1.1,59.9743669558746,2026-01-31 17h29.16.936025 +0530,
,,,25,25,0,5,frames\Vid5_EM_T.png,frames\Vid5_L.png,['r'],1,[4.643730100011453],[None],3,0.8797444000374526,,,,,0,25,25,4,1790.7395914999652,,20,Female,Right handed,Corrected to normal,,,,,,,,,,,,,,,,,,,,,,,,,,,,,,,,,,,,,,,,1790.720813299995,1790.7395914999652,1790.7395914999652,1790.7395914999652,1790.7395914999652,1790.7395914999652,1790.7395914999652,1795.3917480999953,['r'],1,[4.643730100011453],[None],1795.3930908999755,1795.405445099983,1795.405445099983,1795.405445099983,1796.2901987999794,3,0.8797444000374526,3,0.8797444000374526,,,,sub_113AB,001,2026-01-31_17h28.29.335,recognitionstage,,2025.1.1,59.9743669558746,2026-01-31 17h29.16.936025 +0530,
,,,26,26,0,4,frames\Vid4_EM_T.png,frames\Vid4_L.png,['l'],0,[6.793189200048801],[None],5,1.4154866999597289,,,,,0,26,26,3,1796.3580923999543,,20,Female,Right handed,Corrected to normal,,,,,,,,,,,,,,,,,,,,,,,,,,,,,,,,,,,,,,,,1796.3369084000005,1796.3580923999543,1796.3580923999543,1796.3580923999543,1796.3580923999543,1796.3580923999543,1796.3580923999543,1803.1572341999854,['l'],0,[6.793189200048801],[None],1803.15794309997,1803.172301499988,1803.172301499988,1803.172301499988,1804.5894536999986,5,1.4154866999597289,5,1.4154866999597289,,,,sub_113AB,001,2026-01-31_17h28.29.335,recognitionstage,,2025.1.1,59.9743669558746,2026-01-31 17h29.16.936025 +0530,
,,,27,27,0,3,frames\Vid3_BB_T.png,frames\Vid3_L.png,['l'],1,[2.9331342999939807],[None],5,1.247247499995865,,,,,0,27,27,2,1804.642068199988,,20,Female,Right handed,Corrected to normal,,,,,,,,,,,,,,,,,,,,,,,,,,,,,,,,,,,,,,,,1804.629569199984,1804.642068199988,1804.642068199988,1804.642068199988,1804.642068199988,1804.642068199988,1804.642068199988,1807.5911418999895,['l'],1,[2.9331342999939807],[None],1807.5924128999468,1807.6053309999988,1807.6053309999988,1807.6053309999988,1808.8569056999986,5,1.247247499995865,5,1.247247499995865,,,,sub_113AB,001,2026-01-31_17h28.29.335,recognitionstage,,2025.1.1,59.9743669558746,2026-01-31 17h29.16.936025 +0530,
,,,28,28,0,28,frames\Vid28_EM_T.png,frames\Vid28_L.png,['r'],1,[2.251933299994562],[None],5,1.131914899975527,,,,,0,28,28,27,1808.8911335999728,,20,Female,Right handed,Corrected to normal,,,,,,,,,,,,,,,,,,,,,,,,,,,,,,,,,,,,,,,,1808.8674296999816,1808.8911335999728,1808.8911335999728,1808.8911335999728,1808.8911335999728,1808.8911335999728,1808.8911335999728,1811.1575754999649,['r'],1,[2.251933299994562],[None],1811.1587684999686,1811.1722051999532,1811.1722051999532,1811.1722051999532,1812.306265799969,5,1.131914899975527,5,1.131914899975527,,,,sub_113AB,001,2026-01-31_17h28.29.335,recognitionstage,,2025.1.1,59.9743669558746,2026-01-31 17h29.16.936025 +0530,
,,,29,29,0,12,frames\Vid12_EM_T.png,frames\Vid12_L.png,['l'],0,[2.666282600024715],[None],1,0.8986656999913976,,,,,0,29,29,11,1812.3729372999514,,20,Female,Right handed,Corrected to normal,,,,,,,,,,,,,,,,,,,,,,,,,,,,,,,,,,,,,,,,1812.352539399988,1812.3729372999514,1812.3729372999514,1812.3729372999514,1812.3729372999514,1812.3729372999514,1812.3729372999514,1815.040074999968,['l'],0,[2.666282600024715],[None],1815.0409355999436,1815.0556260999874,1815.0556260999874,1815.0556260999874,1815.9559903999907,1,0.8986656999913976,1,0.8986656999913976,,,,sub_113AB,001,2026-01-31_17h28.29.335,recognitionstage,,2025.1.1,59.9743669558746,2026-01-31 17h29.16.936025 +0530,
,,,30,30,0,37,frames\Vid37_BB_T.png,frames\Vid37_L.png,['l'],1,[3.0154698999831453],[None],5,1.0796909000491723,,,,,0,30,30,36,1815.9917758999509,,20,Female,Right handed,Corrected to normal,,,,,,,,,,,,,,,,,,,,,,,,,,,,,,,,,,,,,,,,1815.9678522999748,1815.9917758999509,1815.9917758999509,1815.9917758999509,1815.9917758999509,1815.9917758999509,1815.9917758999509,1819.0091859999811,['l'],1,[3.0154698999831453],[None],1819.0099661999848,1819.0220703999512,1819.0220703999512,1819.0220703999512,1820.1068878999795,5,1.0796909000491723,5,1.0796909000491723,,,,sub_113AB,001,2026-01-31_17h28.29.335,recognitionstage,,2025.1.1,59.9743669558746,2026-01-31 17h29.16.936025 +0530,
,,,31,31,0,2,frames\Vid2_BB_T.png,frames\Vid2_L.png,['r'],1,[4.019499300047755],[None],5,1.597089600050822,,,,,0,31,31,1,1820.1559981999453,,20,Female,Right handed,Corrected to normal,,,,,,,,,,,,,,,,,,,,,,,,,,,,,,,,,,,,,,,,1820.1472124999855,1820.1559981999453,1820.1559981999453,1820.1559981999453,1820.1559981999453,1820.1559981999453,1820.1559981999453,1824.1913361999905,['r'],1,[4.019499300047755],[None],1824.192809399974,1824.2055677999742,1824.2055677999742,1824.2055677999742,1825.8071003999794,5,1.597089600050822,5,1.597089600050822,,,,sub_113AB,001,2026-01-31_17h28.29.335,recognitionstage,,2025.1.1,59.9743669558746,2026-01-31 17h29.16.936025 +0530,
,,,32,32,0,32,frames\Vid32_EM_T.png,frames\Vid32_L.png,['r'],1,[2.9335306999855675],[None],5,1.082729100016877,,,,,0,32,32,31,1825.8417047999683,,20,Female,Right handed,Corrected to normal,,,,,,,,,,,,,,,,,,,,,,,,,,,,,,,,,,,,,,,,1825.820361399965,1825.8417047999683,1825.8417047999683,1825.8417047999683,1825.8417047999683,1825.8417047999683,1825.8417047999683,1828.7898350999458,['r'],1,[2.9335306999855675],[None],1828.7905510999844,1828.8052936999593,1828.8052936999593,1828.8052936999593,1829.8903125999495,5,1.082729100016877,5,1.082729100016877,,,,sub_113AB,001,2026-01-31_17h28.29.335,recognitionstage,,2025.1.1,59.9743669558746,2026-01-31 17h29.16.936025 +0530,
,,,33,33,0,30,frames\Vid30_EM_T.png,frames\Vid30_L.png,['l'],1,[4.197106399980839],[None],3,1.0967811000300571,,,,,0,33,33,29,1829.922267899965,,20,Female,Right handed,Corrected to normal,,,,,,,,,,,,,,,,,,,,,,,,,,,,,,,,,,,,,,,,1829.900211100001,1829.922267899965,1829.922267899965,1829.922267899965,1829.922267899965,1829.922267899965,1829.922267899965,1834.1257067999686,['l'],1,[4.197106399980839],[None],1834.1274700999493,1834.1538577999454,1834.1538577999454,1834.1538577999454,1835.2398482999997,3,1.0967811000300571,3,1.0967811000300571,,,,sub_113AB,001,2026-01-31_17h28.29.335,recognitionstage,,2025.1.1,59.9743669558746,2026-01-31 17h29.16.936025 +0530,
,,,34,34,0,33,frames\Vid33_BB_T.png,frames\Vid33_L.png,['l'],1,[2.9911837999825366],[None],5,1.197362900013104,,,,,0,34,34,32,1835.2721480999608,,20,Female,Right handed,Corrected to normal,,,,,,,,,,,,,,,,,,,,,,,,,,,,,,,,,,,,,,,,1835.2512821999844,1835.2721480999608,1835.2721480999608,1835.2721480999608,1835.2721480999608,1835.2721480999608,1835.2721480999608,1838.2747331999708,['l'],1,[2.9911837999825366],[None],1838.27577009995,1838.2890594999772,1838.2890594999772,1838.2890594999772,1839.4903536999482,5,1.197362900013104,5,1.197362900013104,,,,sub_113AB,001,2026-01-31_17h28.29.335,recognitionstage,,2025.1.1,59.9743669558746,2026-01-31 17h29.16.936025 +0530,
,,,35,35,0,7,frames\Vid7_EM_T.png,frames\Vid7_L.png,['r'],1,[3.8032697000307962],[None],5,1.0300147000234574,,,,,0,35,35,6,1839.5558365999605,,20,Female,Right handed,Corrected to normal,,,,,,,,,,,,,,,,,,,,,,,,,,,,,,,,,,,,,,,,1839.5343803999713,1839.5558365999605,1839.5558365999605,1839.5558365999605,1839.5558365999605,1839.5558365999605,1839.5558365999605,1843.3753297999501,['r'],1,[3.8032697000307962],[None],1843.3768580999458,1843.4038456999697,1843.4038456999697,1843.4038456999697,1844.4231690999586,5,1.0300147000234574,5,1.0300147000234574,,,,sub_113AB,001,2026-01-31_17h28.29.335,recognitionstage,,2025.1.1,59.9743669558746,2026-01-31 17h29.16.936025 +0530,
,,,36,36,0,6,frames\Vid6_BB_T.png,frames\Vid6_L.png,['r'],1,[4.411423799989279],[None],5,0.9148965000058524,,,,,0,36,36,5,1844.4917972999974,,20,Female,Right handed,Corrected to normal,,,,,,,,,,,,,,,,,,,,,,,,,,,,,,,,,,,,,,,,1844.4665756999748,1844.4917972999974,1844.4917972999974,1844.4917972999974,1844.4917972999974,1844.4917972999974,1844.4917972999974,1848.9075883999467,['r'],1,[4.411423799989279],[None],1848.9084572999855,1848.9219998999615,1848.9219998999615,1848.9219998999615,1849.8397122999886,5,0.9148965000058524,5,0.9148965000058524,,,,sub_113AB,001,2026-01-31_17h28.29.335,recognitionstage,,2025.1.1,59.9743669558746,2026-01-31 17h29.16.936025 +0530,
,,,37,37,0,15,frames\Vid15_BB_T.png,frames\Vid15_L.png,['l'],0,[3.9300039000227116],[None],1,0.8320013000047766,,,,,0,37,37,14,1849.9091739999712,,20,Female,Right handed,Corrected to normal,,,,,,,,,,,,,,,,,,,,,,,,,,,,,,,,,,,,,,,,1849.887246499944,1849.9091739999712,1849.9091739999712,1849.9091739999712,1849.9091739999712,1849.9091739999712,1849.9091739999712,1853.8403328999993,['l'],0,[3.9300039000227116],[None],1853.8411317999708,1853.8556793999742,1853.8556793999742,1853.8556793999742,1854.689874499978,1,0.8320013000047766,1,0.8320013000047766,,,,sub_113AB,001,2026-01-31_17h28.29.335,recognitionstage,,2025.1.1,59.9743669558746,2026-01-31 17h29.16.936025 +0530,
,,,38,38,0,17,frames\Vid17_BB_T.png,frames\Vid17_L.png,['l'],1,[3.602098399947863],[None],5,1.1149161999928765,,,,,0,38,38,16,1854.7250008999836,,20,Female,Right handed,Corrected to normal,,,,,,,,,,,,,,,,,,,,,,,,,,,,,,,,,,,,,,,,1854.7142114999588,1854.7250008999836,1854.7250008999836,1854.7250008999836,1854.7250008999836,1854.7250008999836,1854.7250008999836,1858.3406354999752,['l'],1,[3.602098399947863],[None],1858.3415899999673,1858.3550937999971,1858.3550937999971,1858.3550937999971,1859.4735758999595,5,1.1149161999928765,5,1.1149161999928765,,,,sub_113AB,001,2026-01-31_17h28.29.335,recognitionstage,,2025.1.1,59.9743669558746,2026-01-31 17h29.16.936025 +0530,
,,,39,39,0,26,frames\Vid26_EM_T.png,frames\Vid26_L.png,['l'],1,[4.140753899991978],[None],5,1.5981106999679469,,,,,0,39,39,25,1859.506540399976,,20,Female,Right handed,Corrected to normal,,,,,,,,,,,,,,,,,,,,,,,,,,,,,,,,,,,,,,,,1859.490653899964,1859.506540399976,1859.506540399976,1859.506540399976,1859.506540399976,1859.506540399976,1859.506540399976,1863.657701899996,['l'],1,[4.140753899991978],[None],1863.6586400999804,1863.6869694999768,1863.6869694999768,1863.6869694999768,1865.273295299965,5,1.5981106999679469,5,1.5981106999679469,,,,sub_113AB,001,2026-01-31_17h28.29.335,recognitionstage,,2025.1.1,59.9743669558746,2026-01-31 17h29.16.936025 +0530,
,,,,,,,,,,,,,,,,,,,,,,,,,20,Female,Right handed,Corrected to normal,,,,,,,,,,,,,,,,,,,,,,,,,,,,,,,,,,,,,,,,,,,,,,,,,,,,,,,,,,,,,1865.2734134999919,1865.2891673999839,1865.2891673999839,,,,,,,,,
