path,duration,is_repeat,thisN,thisTrialN,thisRepN,movie_id,target_img,lure_img,resp.keys,resp.corr,resp.rt,resp.duration,conf_radio.response,conf_radio.rt,movie.thisRepN,movie.thisTrialN,movie.thisN,movie.thisIndex,recogloop.thisRepN,recogloop.thisTrialN,recogloop.thisN,recogloop.thisIndex,thisRow.t,notes,age,gender,handedness,vision,caffeine_2h,alcohol_smoke_12h,demographics.started,demographics.stopped,Instructions.started,text1.started,key_resp.started,Instructions.stopped,key_resp.keys,key_resp.rt,key_resp.duration,instruction_2.started,text2.started,key_resp_2.started,instruction_2.stopped,key_resp_2.keys,key_resp_2.rt,key_resp_2.duration,Videos.started,movie_2.started,vigilance_resp.started,movie_2.stopped,Videos.stopped,movie.vigilance_resp.keys,vigilance_pressed,vigilance_correct,ISI.started,text.started,text.stopped,ISI.stopped,movie.vigilance_resp.rt,movie.vigilance_resp.duration,recognition.started,text_4.started,key_resp_3.started,recognition.stopped,key_resp_3.keys,key_resp_3.rt,key_resp_3.duration,recognition_task.started,leftimage.started,rightimage.started,resp.started,frames_question.started,right_label.started,left_label.started,recognition_task.stopped,recogloop.resp.keys,recogloop.resp.corr,recogloop.resp.rt,recogloop.resp.duration,confidence.started,conf_text.started,conf_radio.started,conf_label.started,confidence.stopped,recogloop.conf_radio.response,recogloop.conf_radio.rt,confidence,confidence_rt,thank_you.started,text_6.started,key_resp_4.started,thank_you.stopped,key_resp_4.keys,participant,session,date,expName,expVersion,psychopyVersion,frameRate,expStart,...103
,,,,,,,,,,,,,,,,,,,,,,,,,23,Male,Right handed,Normal,Caffeine consumed in last 2 hours?,Alcohol or smoking in last 12 hours?,0.0072883000248111784,0.06944659998407587,,,,,,,,,,,,,,,,,,,,,,,,,,,,,,,,,,,,,,,,,,,,,,,,,,,,,,,,,,,,,,sub103_AB,001,2026-01-31_09h43.12.854,recognitionstage,,2025.1.1,59.94718651036895,2026-01-31 09h43.48.699579 +0530,
,,,,,,,,,,,,,,,,,,,,,,,,,23,Male,Right handed,Normal,,,,,0.0694754000287503,0.07441130001097918,0.07441130001097918,14.99533689999953,space,14.919843300012872,None,,,,,,,,,,,,,,,,,,,,,,,,,,,,,,,,,,,,,,,,,,,,,,,,,,,,,,,sub103_AB,001,2026-01-31_09h43.12.854,recognitionstage,,2025.1.1,59.94718651036895,2026-01-31 09h43.48.699579 +0530,
,,,,,,,,,,,,,,,,,,,,,,,,,23,Male,Right handed,Normal,,,,,,,,,,,,14.995391900010873,15.010384100023657,15.010384100023657,20.261406900011934,space,5.2398375000339,None,,,,,,,,,,,,,,,,,,,,,,,,,,,,,,,,,,,,,,,,,,,,,,,,sub103_AB,001,2026-01-31_09h43.12.854,recognitionstage,,2025.1.1,59.94718651036895,2026-01-31 09h43.48.699579 +0530,
abrupt_videos\abrupt_32.mp4,31,0,44,44,0,,,,,,,,,,0,44,44,35,,,,,1509.9094562000246,,23,Male,Right handed,Normal,,,,,,,,,,,,,,,,,,,1509.8597922000336,1509.9094562000246,1509.9094562000246,1541.9088340000017,1541.763387700019,None,0,1,1541.8989338999963,1541.9088340000017,1544.4108840000117,1544.3953398999874,5.1766705000191,None,1544.3954220000305,1544.4108840000117,1544.4108840000117,1600.8294644000125,space,56.40786360000493,None,,,,,,,,,,,,,,,,,,,,,,,,,,,sub103_AB,001,2026-01-31_09h43.12.854,recognitionstage,,2025.1.1,59.94718651036895,2026-01-31 09h43.48.699579 +0530,
,,,0,0,0,2,frames\Vid2_BB_T.png,frames\Vid2_L.png,['l'],1,[3.9827729999669828],[None],5,3.74696350004524,,,,,0,0,0,1,1600.891847299994,,23,Male,Right handed,Normal,,,,,,,,,,,,,,,,,,,,,,,,,,,,,,,,,,,,,,,,1600.8758020999958,1600.891847299994,1600.891847299994,1600.891847299994,1600.891847299994,1600.891847299994,1600.891847299994,1604.8799066999927,['l'],1,[3.9827729999669828],[None],1604.8812144999974,1604.9076440000208,1604.9076440000208,1604.9076440000208,1608.643889400002,5,3.74696350004524,5,3.74696350004524,,,,,,sub103_AB,001,2026-01-31_09h43.12.854,recognitionstage,,2025.1.1,59.94718651036895,2026-01-31 09h43.48.699579 +0530,
,,,1,1,0,16,frames\Vid16_EM_T.png,frames\Vid16_L.png,['r'],0,[9.18144429998938],[None],5,1.8135737999691628,,,,,0,1,1,15,1608.7252996999887,,23,Male,Right handed,Normal,,,,,,,,,,,,,,,,,,,,,,,,,,,,,,,,,,,,,,,,1608.7063006000244,1608.7252996999887,1608.7252996999887,1608.7252996999887,1608.7252996999887,1608.7252996999887,1608.7252996999887,1617.9125557999942,['r'],0,[9.18144429998938],[None],1617.91473150003,1617.9409091999987,1617.9409091999987,1617.9409091999987,1619.7435553999967,5,1.8135737999691628,5,1.8135737999691628,,,,,,sub103_AB,001,2026-01-31_09h43.12.854,recognitionstage,,2025.1.1,59.94718651036895,2026-01-31 09h43.48.699579 +0530,
,,,2,2,0,17,frames\Vid17_BB_T.png,frames\Vid17_L.png,['r'],1,[4.567192699993029],[None],2,2.9129822999821045,,,,,0,2,2,16,1619.7796703000204,,23,Male,Right handed,Normal,,,,,,,,,,,,,,,,,,,,,,,,,,,,,,,,,,,,,,,,1619.7674771000165,1619.7796703000204,1619.7796703000204,1619.7796703000204,1619.7796703000204,1619.7796703000204,1619.7796703000204,1624.3630918000126,['r'],1,[4.567192699993029],[None],1624.3643524000072,1624.3764220000012,1624.3764220000012,1624.3764220000012,1627.2945433999994,2,2.9129822999821045,2,2.9129822999821045,,,,,,sub103_AB,001,2026-01-31_09h43.12.854,recognitionstage,,2025.1.1,59.94718651036895,2026-01-31 09h43.48.699579 +0530,
,,,3,3,0,15,frames\Vid15_BB_T.png,frames\Vid15_L.png,['l'],0,[5.2809333999757655],[None],5,1.7315533999935724,,,,,0,3,3,14,1627.361621499993,,23,Male,Right handed,Normal,,,,,,,,,,,,,,,,,,,,,,,,,,,,,,,,,,,,,,,,1627.343486000027,1627.361621499993,1627.361621499993,1627.361621499993,1627.361621499993,1627.361621499993,1627.361621499993,1632.6451716999873,['l'],0,[5.2809333999757655],[None],1632.6459677999956,1632.6594528999995,1632.6594528999995,1632.6594528999995,1634.39381769998,5,1.7315533999935724,5,1.7315533999935724,,,,,,sub103_AB,001,2026-01-31_09h43.12.854,recognitionstage,,2025.1.1,59.94718651036895,2026-01-31 09h43.48.699579 +0530,
,,,4,4,0,22,frames\Vid22_EM_T.png,frames\Vid22_L.png,['r'],1,[7.021421300014481],[None],5,1.6320631999988109,,,,,0,4,4,21,1634.4290640000254,,23,Male,Right handed,Normal,,,,,,,,,,,,,,,,,,,,,,,,,,,,,,,,,,,,,,,,1634.4075753000216,1634.4290640000254,1634.4290640000254,1634.4290640000254,1634.4290640000254,1634.4290640000254,1634.4290640000254,1641.4609701000154,['r'],1,[7.021421300014481],[None],1641.4618474000017,1641.4765282000299,1641.4765282000299,1641.4765282000299,1643.1109225000255,5,1.6320631999988109,5,1.6320631999988109,,,,,,sub103_AB,001,2026-01-31_09h43.12.854,recognitionstage,,2025.1.1,59.94718651036895,2026-01-31 09h43.48.699579 +0530,
,,,5,5,0,40,frames\Vid40_EM_T.png,frames\Vid40_L.png,['r'],1,[3.970194099994842],[None],5,1.1806719000451267,,,,,0,5,5,39,1643.1282939999946,,23,Male,Right handed,Normal,,,,,,,,,,,,,,,,,,,,,,,,,,,,,,,,,,,,,,,,1643.1197918999824,1643.1282939999946,1643.1282939999946,1643.1282939999946,1643.1282939999946,1643.1282939999946,1643.1282939999946,1647.1120980000123,['r'],1,[3.970194099994842],[None],1647.1130562000326,1647.1260921999929,1647.1260921999929,1647.1260921999929,1648.3111569000175,5,1.1806719000451267,5,1.1806719000451267,,,,,,sub103_AB,001,2026-01-31_09h43.12.854,recognitionstage,,2025.1.1,59.94718651036895,2026-01-31 09h43.48.699579 +0530,
,,,6,6,0,36,frames\Vid36_BB_T.png,frames\Vid36_L.png,['r'],1,[2.5318675999878906],[None],5,0.9321222999715246,,,,,0,6,6,35,1648.342819500016,,23,Male,Right handed,Normal,,,,,,,,,,,,,,,,,,,,,,,,,,,,,,,,,,,,,,,,1648.324509900005,1648.342819500016,1648.342819500016,1648.342819500016,1648.342819500016,1648.342819500016,1648.342819500016,1650.8783340000082,['r'],1,[2.5318675999878906],[None],1650.8794886000105,1650.8931572000147,1650.8931572000147,1650.8931572000147,1651.8274042999838,5,0.9321222999715246,5,0.9321222999715246,,,,,,sub103_AB,001,2026-01-31_09h43.12.854,recognitionstage,,2025.1.1,59.94718651036895,2026-01-31 09h43.48.699579 +0530,
,,,7,7,0,27,frames\Vid27_BB_T.png,frames\Vid27_L.png,['r'],1,[2.2937441000249237],[None],5,1.0649754999903962,,,,,0,7,7,26,1651.8448860000353,,23,Male,Right handed,Normal,,,,,,,,,,,,,,,,,,,,,,,,,,,,,,,,,,,,,,,,1651.836649200006,1651.8448860000353,1651.8448860000353,1651.8448860000353,1651.8448860000353,1651.8448860000353,1651.8448860000353,1654.1447196000372,['r'],1,[2.2937441000249237],[None],1654.1456240999978,1654.1603482000064,1654.1603482000064,1654.1603482000064,1655.227446999983,5,1.0649754999903962,5,1.0649754999903962,,,,,,sub103_AB,001,2026-01-31_09h43.12.854,recognitionstage,,2025.1.1,59.94718651036895,2026-01-31 09h43.48.699579 +0530,
,,,8,8,0,8,frames\Vid8_BB_T.png,frames\Vid8_L.png,['r'],0,[8.630269800021779],[None],5,1.0314082000404596,,,,,0,8,8,7,1655.2764692000346,,23,Male,Right handed,Normal,,,,,,,,,,,,,,,,,,,,,,,,,,,,,,,,,,,,,,,,1655.2679137000232,1655.2764692000346,1655.2764692000346,1655.2764692000346,1655.2764692000346,1655.2764692000346,1655.2764692000346,1663.9121426999918,['r'],0,[8.630269800021779],[None],1663.9132265999797,1663.9265205999836,1663.9265205999836,1663.9265205999836,1664.960431799991,5,1.0314082000404596,5,1.0314082000404596,,,,,,sub103_AB,001,2026-01-31_09h43.12.854,recognitionstage,,2025.1.1,59.94718651036895,2026-01-31 09h43.48.699579 +0530,
,,,9,9,0,9,frames\Vid9_EM_T.png,frames\Vid9_L.png,['l'],1,[4.077885599981528],[None],5,1.4636322999722324,,,,,0,9,9,8,1665.0128493999946,,23,Male,Right handed,Normal,,,,,,,,,,,,,,,,,,,,,,,,,,,,,,,,,,,,,,,,1664.9996969000204,1665.0128493999946,1665.0128493999946,1665.0128493999946,1665.0128493999946,1665.0128493999946,1665.0128493999946,1669.0965512000257,['l'],1,[4.077885599981528],[None],1669.0976842999808,1669.1098281000159,1669.1098281000159,1669.1098281000159,1670.5769318999955,5,1.4636322999722324,5,1.4636322999722324,,,,,,sub103_AB,001,2026-01-31_09h43.12.854,recognitionstage,,2025.1.1,59.94718651036895,2026-01-31 09h43.48.699579 +0530,
,,,10,10,0,10,frames\Vid10_BB_T.png,frames\Vid10_L.png,['r'],1,[3.7171875000349246],[None],5,0.7655316999880597,,,,,0,10,10,9,1670.6292622000328,,23,Male,Right handed,Normal,,,,,,,,,,,,,,,,,,,,,,,,,,,,,,,,,,,,,,,,1670.6178327000234,1670.6292622000328,1670.6292622000328,1670.6292622000328,1670.6292622000328,1670.6292622000328,1670.6292622000328,1674.3614745999803,['r'],1,[3.7171875000349246],[None],1674.3623993000365,1674.3913291000063,1674.3913291000063,1674.3913291000063,1675.144358200021,5,0.7655316999880597,5,0.7655316999880597,,,,,,sub103_AB,001,2026-01-31_09h43.12.854,recognitionstage,,2025.1.1,59.94718651036895,2026-01-31 09h43.48.699579 +0530,
,,,11,11,0,39,frames\Vid39_BB_T.png,frames\Vid39_L.png,['r'],1,[4.566089699976146],[None],5,1.2152028999989852,,,,,0,11,11,38,1675.1645126999938,,23,Male,Right handed,Normal,,,,,,,,,,,,,,,,,,,,,,,,,,,,,,,,,,,,,,,,1675.153418300033,1675.1645126999938,1675.1645126999938,1675.1645126999938,1675.1645126999938,1675.1645126999938,1675.1645126999938,1679.7455619000248,['r'],1,[4.566089699976146],[None],1679.7462502000271,1679.7596017000033,1679.7596017000033,1679.7596017000033,1680.9774412999977,5,1.2152028999989852,5,1.2152028999989852,,,,,,sub103_AB,001,2026-01-31_09h43.12.854,recognitionstage,,2025.1.1,59.94718651036895,2026-01-31 09h43.48.699579 +0530,
,,,12,12,0,11,frames\Vid11_EM_T.png,frames\Vid11_L.png,['l'],1,[2.7440567999728955],[None],5,2.248265400005039,,,,,0,12,12,10,1681.026639299991,,23,Male,Right handed,Normal,,,,,,,,,,,,,,,,,,,,,,,,,,,,,,,,,,,,,,,,1681.0183367999853,1681.026639299991,1681.026639299991,1681.026639299991,1681.026639299991,1681.026639299991,1681.026639299991,1683.779546900012,['l'],1,[2.7440567999728955],[None],1683.7805874000187,1683.8080888999975,1683.8080888999975,1683.8080888999975,1686.043765200011,5,2.248265400005039,5,2.248265400005039,,,,,,sub103_AB,001,2026-01-31_09h43.12.854,recognitionstage,,2025.1.1,59.94718651036895,2026-01-31 09h43.48.699579 +0530,
,,,13,13,0,31,frames\Vid31_EM_T.png,frames\Vid31_L.png,['l'],1,[3.091938700003084],[None],5,1.4643192999647,,,,,0,13,13,30,1686.0786269999808,,23,Male,Right handed,Normal,,,,,,,,,,,,,,,,,,,,,,,,,,,,,,,,,,,,,,,,1686.0541546000168,1686.0786269999808,1686.0786269999808,1686.0786269999808,1686.0786269999808,1686.0786269999808,1686.0786269999808,1689.1784856999875,['l'],1,[3.091938700003084],[None],1689.1796385000343,1689.1940850000246,1689.1940850000246,1689.1940850000246,1690.661354299984,5,1.4643192999647,5,1.4643192999647,,,,,,sub103_AB,001,2026-01-31_09h43.12.854,recognitionstage,,2025.1.1,59.94718651036895,2026-01-31 09h43.48.699579 +0530,
,,,14,14,0,14,frames\Vid14_BB_T.png,frames\Vid14_L.png,['r'],1,[3.1236722000176087],[None],3,1.3316064000246115,,,,,0,14,14,13,1690.7268874000292,,23,Male,Right handed,Normal,,,,,,,,,,,,,,,,,,,,,,,,,,,,,,,,,,,,,,,,1690.7070650000242,1690.7268874000292,1690.7268874000292,1690.7268874000292,1690.7268874000292,1690.7268874000292,1690.7268874000292,1693.86163639999,['r'],1,[3.1236722000176087],[None],1693.862557000015,1693.8767061000108,1693.8767061000108,1693.8767061000108,1695.2104018999962,3,1.3316064000246115,3,1.3316064000246115,,,,,,sub103_AB,001,2026-01-31_09h43.12.854,recognitionstage,,2025.1.1,59.94718651036895,2026-01-31 09h43.48.699579 +0530,
,,,15,15,0,5,frames\Vid5_EM_T.png,frames\Vid5_L.png,['r'],0,[4.404017299995758],[None],2,1.846893900015857,,,,,0,15,15,4,1695.2625622000196,,23,Male,Right handed,Normal,,,,,,,,,,,,,,,,,,,,,,,,,,,,,,,,,,,,,,,,1695.241437699995,1695.2625622000196,1695.2625622000196,1695.2625622000196,1695.2625622000196,1695.2625622000196,1695.2625622000196,1699.6790048999828,['r'],0,[4.404017299995758],[None],1699.6801439999836,1699.6927438999992,1699.6927438999992,1699.6927438999992,1701.543762699992,2,1.846893900015857,2,1.846893900015857,,,,,,sub103_AB,001,2026-01-31_09h43.12.854,recognitionstage,,2025.1.1,59.94718651036895,2026-01-31 09h43.48.699579 +0530,
,,,16,16,0,7,frames\Vid7_EM_T.png,frames\Vid7_L.png,['r'],1,[4.438955400022678],[None],5,2.397565899998881,,,,,0,16,16,6,1701.5956450999947,,23,Male,Right handed,Normal,,,,,,,,,,,,,,,,,,,,,,,,,,,,,,,,,,,,,,,,1701.585107800027,1701.5956450999947,1701.5956450999947,1701.5956450999947,1701.5956450999947,1701.5956450999947,1701.5956450999947,1706.0460400999873,['r'],1,[4.438955400022678],[None],1706.0470294000115,1706.059453600028,1706.059453600028,1706.059453600028,1708.4602601000224,5,2.397565899998881,5,2.397565899998881,,,,,,sub103_AB,001,2026-01-31_09h43.12.854,recognitionstage,,2025.1.1,59.94718651036895,2026-01-31 09h43.48.699579 +0530,
,,,17,17,0,12,frames\Vid12_EM_T.png,frames\Vid12_L.png,['l'],1,[4.033886799996253],[None],5,1.281495899951551,,,,,0,17,17,11,1708.5125762000098,,23,Male,Right handed,Normal,,,,,,,,,,,,,,,,,,,,,,,,,,,,,,,,,,,,,,,,1708.5029648999916,1708.5125762000098,1708.5125762000098,1708.5125762000098,1708.5125762000098,1708.5125762000098,1708.5125762000098,1712.5615958999842,['l'],1,[4.033886799996253],[None],1712.562353699992,1712.57600489998,1712.57600489998,1712.57600489998,1713.8611301000346,5,1.281495899951551,5,1.281495899951551,,,,,,sub103_AB,001,2026-01-31_09h43.12.854,recognitionstage,,2025.1.1,59.94718651036895,2026-01-31 09h43.48.699579 +0530,
,,,18,18,0,23,frames\Vid23_EM_T.png,frames\Vid23_L.png,['r'],0,[3.578856599982828],[None],3,1.0300367000163533,,,,,0,18,18,22,1713.8958103000186,,23,Male,Right handed,Normal,,,,,,,,,,,,,,,,,,,,,,,,,,,,,,,,,,,,,,,,1713.8771468999912,1713.8958103000186,1713.8958103000186,1713.8958103000186,1713.8958103000186,1713.8958103000186,1713.8958103000186,1717.4797044000006,['r'],0,[3.578856599982828],[None],1717.4810072000255,1717.4927485000226,1717.4927485000226,1717.4927485000226,1718.5271046999842,3,1.0300367000163533,3,1.0300367000163533,,,,,,sub103_AB,001,2026-01-31_09h43.12.854,recognitionstage,,2025.1.1,59.94718651036895,2026-01-31 09h43.48.699579 +0530,
,,,19,19,0,28,frames\Vid28_EM_T.png,frames\Vid28_L.png,['r'],1,[2.163042399974074],[None],5,1.4817528999992646,,,,,0,19,19,27,1718.559645100031,,23,Male,Right handed,Normal,,,,,,,,,,,,,,,,,,,,,,,,,,,,,,,,,,,,,,,,1718.5385805999977,1718.559645100031,1718.559645100031,1718.559645100031,1718.559645100031,1718.559645100031,1718.559645100031,1720.7286538000335,['r'],1,[2.163042399974074],[None],1720.7292174000177,1720.7430796999834,1720.7430796999834,1720.7430796999834,1722.2267585000372,5,1.4817528999992646,5,1.4817528999992646,,,,,,sub103_AB,001,2026-01-31_09h43.12.854,recognitionstage,,2025.1.1,59.94718651036895,2026-01-31 09h43.48.699579 +0530,
,,,20,20,0,19,frames\Vid19_BB_T.png,frames\Vid19_L.png,['r'],1,[2.4069322000141256],[None],3,1.814537099970039,,,,,0,20,20,18,1722.2596063999808,,23,Male,Right handed,Normal,,,,,,,,,,,,,,,,,,,,,,,,,,,,,,,,,,,,,,,,1722.2373938999954,1722.2596063999808,1722.2596063999808,1722.2596063999808,1722.2596063999808,1722.2596063999808,1722.2596063999808,1724.6784331999952,['r'],1,[2.4069322000141256],[None],1724.6793968999991,1724.6928428999963,1724.6928428999963,1724.6928428999963,1726.5111136999913,3,1.814537099970039,3,1.814537099970039,,,,,,sub103_AB,001,2026-01-31_09h43.12.854,recognitionstage,,2025.1.1,59.94718651036895,2026-01-31 09h43.48.699579 +0530,
,,,21,21,0,20,frames\Vid20_EM_T.png,frames\Vid20_L.png,['l'],1,[3.8984256999683566],[None],2,1.7960837000282481,,,,,0,21,21,19,1726.5284421999822,,23,Male,Right handed,Normal,,,,,,,,,,,,,,,,,,,,,,,,,,,,,,,,,,,,,,,,1726.5184111000272,1726.5284421999822,1726.5284421999822,1726.5284421999822,1726.5284421999822,1726.5284421999822,1726.5284421999822,1730.4295797999948,['l'],1,[3.8984256999683566],[None],1730.4310066000326,1730.4579812000156,1730.4579812000156,1730.4579812000156,1732.2445021999883,2,1.7960837000282481,2,1.7960837000282481,,,,,,sub103_AB,001,2026-01-31_09h43.12.854,recognitionstage,,2025.1.1,59.94718651036895,2026-01-31 09h43.48.699579 +0530,
,,,22,22,0,29,frames\Vid29_BB_T.png,frames\Vid29_L.png,['l'],1,[3.5743966000154614],[None],4,1.2325531999813393,,,,,0,22,22,28,1732.2763005000306,,23,Male,Right handed,Normal,,,,,,,,,,,,,,,,,,,,,,,,,,,,,,,,,,,,,,,,1732.2584489000146,1732.2763005000306,1732.2763005000306,1732.2763005000306,1732.2763005000306,1732.2763005000306,1732.2763005000306,1735.8618994000135,['l'],1,[3.5743966000154614],[None],1735.862889799988,1735.876108700002,1735.876108700002,1735.876108700002,1737.1102488000179,4,1.2325531999813393,4,1.2325531999813393,,,,,,sub103_AB,001,2026-01-31_09h43.12.854,recognitionstage,,2025.1.1,59.94718651036895,2026-01-31 09h43.48.699579 +0530,
,,,23,23,0,24,frames\Vid24_BB_T.png,frames\Vid24_L.png,['r'],1,[4.443739800015464],[None],5,2.4304253000300378,,,,,0,23,23,23,1737.1430741000222,,23,Male,Right handed,Normal,,,,,,,,,,,,,,,,,,,,,,,,,,,,,,,,,,,,,,,,1737.1235504000215,1737.1430741000222,1737.1430741000222,1737.1430741000222,1737.1430741000222,1737.1430741000222,1737.1430741000222,1741.5960847000242,['r'],1,[4.443739800015464],[None],1741.5972797999857,1741.6096424999996,1741.6096424999996,1741.6096424999996,1744.0434773000306,5,2.4304253000300378,5,2.4304253000300378,,,,,,sub103_AB,001,2026-01-31_09h43.12.854,recognitionstage,,2025.1.1,59.94718651036895,2026-01-31 09h43.48.699579 +0530,
,,,24,24,0,34,frames\Vid34_BB_T.png,frames\Vid34_L.png,['r'],1,[5.164605700003449],[None],2,1.748140100040473,,,,,0,24,24,33,1744.0620038000052,,23,Male,Right handed,Normal,,,,,,,,,,,,,,,,,,,,,,,,,,,,,,,,,,,,,,,,1744.052193599986,1744.0620038000052,1744.0620038000052,1744.0620038000052,1744.0620038000052,1744.0620038000052,1744.0620038000052,1749.2282701000222,['r'],1,[5.164605700003449],[None],1749.229067599983,1749.2427717000246,1749.2427717000246,1749.2427717000246,1750.9943334999844,2,1.748140100040473,2,1.748140100040473,,,,,,sub103_AB,001,2026-01-31_09h43.12.854,recognitionstage,,2025.1.1,59.94718651036895,2026-01-31 09h43.48.699579 +0530,
,,,25,25,0,18,frames\Vid18_EM_T.png,frames\Vid18_L.png,['l'],1,[3.936372800031677],[None],2,1.1477594000170939,,,,,0,25,25,17,1751.0261537000188,,23,Male,Right handed,Normal,,,,,,,,,,,,,,,,,,,,,,,,,,,,,,,,,,,,,,,,1751.0082504000165,1751.0261537000188,1751.0261537000188,1751.0261537000188,1751.0261537000188,1751.0261537000188,1751.0261537000188,1754.978665200004,['l'],1,[3.936372800031677],[None],1754.9795079000178,1754.9928549000178,1754.9928549000178,1754.9928549000178,1756.14455919998,2,1.1477594000170939,2,1.1477594000170939,,,,,,sub103_AB,001,2026-01-31_09h43.12.854,recognitionstage,,2025.1.1,59.94718651036895,2026-01-31 09h43.48.699579 +0530,
,,,26,26,0,26,frames\Vid26_EM_T.png,frames\Vid26_L.png,['r'],0,[3.778440599970054],[None],5,1.6132939999806695,,,,,0,26,26,25,1756.1763980999822,,23,Male,Right handed,Normal,,,,,,,,,,,,,,,,,,,,,,,,,,,,,,,,,,,,,,,,1756.1604273000266,1756.1763980999822,1756.1763980999822,1756.1763980999822,1756.1763980999822,1756.1763980999822,1756.1763980999822,1759.963258200034,['r'],0,[3.778440599970054],[None],1759.9646002000081,1759.9762125000125,1759.9762125000125,1759.9762125000125,1761.5946436999948,5,1.6132939999806695,5,1.6132939999806695,,,,,,sub103_AB,001,2026-01-31_09h43.12.854,recognitionstage,,2025.1.1,59.94718651036895,2026-01-31 09h43.48.699579 +0530,
,,,27,27,0,3,frames\Vid3_BB_T.png,frames\Vid3_L.png,['r'],1,[4.703176199982408],[None],5,1.7483007999835536,,,,,0,27,27,2,1761.6434400000144,,23,Male,Right handed,Normal,,,,,,,,,,,,,,,,,,,,,,,,,,,,,,,,,,,,,,,,1761.635174199997,1761.6434400000144,1761.6434400000144,1761.6434400000144,1761.6434400000144,1761.6434400000144,1761.6434400000144,1766.3614992999937,['r'],1,[4.703176199982408],[None],1766.3624292000313,1766.376120800036,1766.376120800036,1766.376120800036,1768.127791100007,5,1.7483007999835536,5,1.7483007999835536,,,,,,sub103_AB,001,2026-01-31_09h43.12.854,recognitionstage,,2025.1.1,59.94718651036895,2026-01-31 09h43.48.699579 +0530,
,,,28,28,0,13,frames\Vid13_BB_T.png,frames\Vid13_L.png,['l'],1,[3.087214099999983],[None],5,2.099889400007669,,,,,0,28,28,12,1768.1793241000269,,23,Male,Right handed,Normal,,,,,,,,,,,,,,,,,,,,,,,,,,,,,,,,,,,,,,,,1768.1613784999936,1768.1793241000269,1768.1793241000269,1768.1793241000269,1768.1793241000269,1768.1793241000269,1768.1793241000269,1771.277426799992,['l'],1,[3.087214099999983],[None],1771.278212300036,1771.2932163000223,1771.2932163000223,1771.2932163000223,1773.393977800035,5,2.099889400007669,5,2.099889400007669,,,,,,sub103_AB,001,2026-01-31_09h43.12.854,recognitionstage,,2025.1.1,59.94718651036895,2026-01-31 09h43.48.699579 +0530,
,,,29,29,0,6,frames\Vid6_BB_T.png,frames\Vid6_L.png,['l'],1,[2.6364421999896877],[None],5,1.0327011999906972,,,,,0,29,29,5,1773.4460072999937,,23,Male,Right handed,Normal,,,,,,,,,,,,,,,,,,,,,,,,,,,,,,,,,,,,,,,,1773.435160299996,1773.4460072999937,1773.4460072999937,1773.4460072999937,1773.4460072999937,1773.4460072999937,1773.4460072999937,1776.094980199996,['l'],1,[2.6364421999896877],[None],1776.0958084000158,1776.1094385000179,1776.1094385000179,1776.1094385000179,1777.143839700031,5,1.0327011999906972,5,1.0327011999906972,,,,,,sub103_AB,001,2026-01-31_09h43.12.854,recognitionstage,,2025.1.1,59.94718651036895,2026-01-31 09h43.48.699579 +0530,
,,,30,30,0,1,frames\Vid1_EM_T.png,frames\Vid1_L.png,['l'],1,[3.8530051999841817],[None],5,1.8151926000136882,,,,,0,30,30,0,1777.2135917000123,,23,Male,Right handed,Normal,,,,,,,,,,,,,,,,,,,,,,,,,,,,,,,,,,,,,,,,1777.1901740999892,1777.2135917000123,1777.2135917000123,1777.2135917000123,1777.2135917000123,1777.2135917000123,1777.2135917000123,1781.078182700032,['l'],1,[3.8530051999841817],[None],1781.0789194999961,1781.0931818999816,1781.0931818999816,1781.0931818999816,1782.9100542000378,5,1.8151926000136882,5,1.8151926000136882,,,,,,sub103_AB,001,2026-01-31_09h43.12.854,recognitionstage,,2025.1.1,59.94718651036895,2026-01-31 09h43.48.699579 +0530,
,,,31,31,0,32,frames\Vid32_EM_T.png,frames\Vid32_L.png,['l'],1,[2.9528879999998026],[None],5,1.749353599967435,,,,,0,31,31,31,1782.9457316999906,,23,Male,Right handed,Normal,,,,,,,,,,,,,,,,,,,,,,,,,,,,,,,,,,,,,,,,1782.9208172000363,1782.9457316999906,1782.9457316999906,1782.9457316999906,1782.9457316999906,1782.9457316999906,1782.9457316999906,1785.9108324000263,['l'],1,[2.9528879999998026],[None],1785.9116125000292,1785.9266683000023,1785.9266683000023,1785.9266683000023,1787.6766983999987,5,1.749353599967435,5,1.749353599967435,,,,,,sub103_AB,001,2026-01-31_09h43.12.854,recognitionstage,,2025.1.1,59.94718651036895,2026-01-31 09h43.48.699579 +0530,
,,,32,32,0,25,frames\Vid25_BB_T.png,frames\Vid25_L.png,['r'],0,[4.7392054999945685],[None],4,1.5321507999906316,,,,,0,32,32,24,1787.695401999983,,23,Male,Right handed,Normal,,,,,,,,,,,,,,,,,,,,,,,,,,,,,,,,,,,,,,,,1787.6869288000162,1787.695401999983,1787.695401999983,1787.695401999983,1787.695401999983,1787.695401999983,1787.695401999983,1792.4449091000133,['r'],0,[4.7392054999945685],[None],1792.445836000028,1792.4598288999987,1792.4598288999987,1792.4598288999987,1793.994229200005,4,1.5321507999906316,4,1.5321507999906316,,,,,,sub103_AB,001,2026-01-31_09h43.12.854,recognitionstage,,2025.1.1,59.94718651036895,2026-01-31 09h43.48.699579 +0530,
,,,33,33,0,37,frames\Vid37_BB_T.png,frames\Vid37_L.png,['r'],1,[2.6083941000397317],[None],5,1.098367500002496,,,,,0,33,33,36,1794.0261103000375,,23,Male,Right handed,Normal,,,,,,,,,,,,,,,,,,,,,,,,,,,,,,,,,,,,,,,,1794.0056179999956,1794.0261103000375,1794.0261103000375,1794.0261103000375,1794.0261103000375,1794.0261103000375,1794.0261103000375,1796.6450626000296,['r'],1,[2.6083941000397317],[None],1796.6458151999977,1796.65966200002,1796.65966200002,1796.65966200002,1797.7603102999856,5,1.098367500002496,5,1.098367500002496,,,,,,sub103_AB,001,2026-01-31_09h43.12.854,recognitionstage,,2025.1.1,59.94718651036895,2026-01-31 09h43.48.699579 +0530,
,,,34,34,0,35,frames\Vid35_EM_T.png,frames\Vid35_L.png,['r'],1,[3.3122560000047088],[None],5,1.3140571000403725,,,,,0,34,34,34,1797.7784695000155,,23,Male,Right handed,Normal,,,,,,,,,,,,,,,,,,,,,,,,,,,,,,,,,,,,,,,,1797.7705147999804,1797.7784695000155,1797.7784695000155,1797.7784695000155,1797.7784695000155,1797.7784695000155,1797.7784695000155,1801.095861800015,['r'],1,[3.3122560000047088],[None],1801.0971408000332,1801.12448280002,1801.12448280002,1801.12448280002,1802.4269153000205,5,1.3140571000403725,5,1.3140571000403725,,,,,,sub103_AB,001,2026-01-31_09h43.12.854,recognitionstage,,2025.1.1,59.94718651036895,2026-01-31 09h43.48.699579 +0530,
,,,35,35,0,4,frames\Vid4_EM_T.png,frames\Vid4_L.png,['l'],1,[3.836953700054437],[None],3,1.964228600030765,,,,,0,35,35,3,1802.493571900006,,23,Male,Right handed,Normal,,,,,,,,,,,,,,,,,,,,,,,,,,,,,,,,,,,,,,,,1802.4724071000237,1802.493571900006,1802.493571900006,1802.493571900006,1802.493571900006,1802.493571900006,1802.493571900006,1806.3457341000321,['l'],1,[3.836953700054437],[None],1806.3466803000192,1806.359366699995,1806.359366699995,1806.359366699995,1808.3271557000116,3,1.964228600030765,3,1.964228600030765,,,,,,sub103_AB,001,2026-01-31_09h43.12.854,recognitionstage,,2025.1.1,59.94718651036895,2026-01-31 09h43.48.699579 +0530,
,,,36,36,0,30,frames\Vid30_EM_T.png,frames\Vid30_L.png,['l'],1,[4.320118699979503],[None],5,1.4822292000171728,,,,,0,36,36,29,1808.3624461999862,,23,Male,Right handed,Normal,,,,,,,,,,,,,,,,,,,,,,,,,,,,,,,,,,,,,,,,1808.3384286999935,1808.3624461999862,1808.3624461999862,1808.3624461999862,1808.3624461999862,1808.3624461999862,1808.3624461999862,1812.6949152000016,['l'],1,[4.320118699979503],[None],1812.6959415000165,1812.7099195999908,1812.7099195999908,1812.7099195999908,1814.1935089000035,5,1.4822292000171728,5,1.4822292000171728,,,,,,sub103_AB,001,2026-01-31_09h43.12.854,recognitionstage,,2025.1.1,59.94718651036895,2026-01-31 09h43.48.699579 +0530,
,,,37,37,0,38,frames\Vid38_EM_T.png,frames\Vid38_L.png,['l'],1,[5.190626399999019],[None],4,1.2802413999452256,,,,,0,37,37,37,1814.2120431000367,,23,Male,Right handed,Normal,,,,,,,,,,,,,,,,,,,,,,,,,,,,,,,,,,,,,,,,1814.2023378000013,1814.2120431000367,1814.2120431000367,1814.2120431000367,1814.2120431000367,1814.2120431000367,1814.2120431000367,1819.4118789000204,['l'],1,[5.190626399999019],[None],1819.4133412000374,1819.4260905000265,1819.4260905000265,1819.4260905000265,1820.7105284000281,4,1.2802413999452256,4,1.2802413999452256,,,,,,sub103_AB,001,2026-01-31_09h43.12.854,recognitionstage,,2025.1.1,59.94718651036895,2026-01-31 09h43.48.699579 +0530,
,,,38,38,0,33,frames\Vid33_BB_T.png,frames\Vid33_L.png,['l'],1,[3.826371300034225],[None],3,2.3178423999925144,,,,,0,38,38,32,1820.728126400034,,23,Male,Right handed,Normal,,,,,,,,,,,,,,,,,,,,,,,,,,,,,,,,,,,,,,,,1820.7202465999871,1820.728126400034,1820.728126400034,1820.728126400034,1820.728126400034,1820.728126400034,1820.728126400034,1824.5602259000298,['l'],1,[3.826371300034225],[None],1824.5607828000211,1824.576551200007,1824.576551200007,1824.576551200007,1826.8934227999998,3,2.3178423999925144,3,2.3178423999925144,,,,,,sub103_AB,001,2026-01-31_09h43.12.854,recognitionstage,,2025.1.1,59.94718651036895,2026-01-31 09h43.48.699579 +0530,
,,,39,39,0,21,frames\Vid21_BB_T.png,frames\Vid21_L.png,['l'],1,[3.116453399998136],[None],5,1.5793937999987975,,,,,0,39,39,20,1826.9263432000298,,23,Male,Right handed,Normal,,,,,,,,,,,,,,,,,,,,,,,,,,,,,,,,,,,,,,,,1826.9064431000152,1826.9263432000298,1826.9263432000298,1826.9263432000298,1826.9263432000298,1826.9263432000298,1826.9263432000298,1830.0471435000072,['l'],1,[3.116453399998136],[None],1830.0484511000104,1830.0743382000364,1830.0743382000364,1830.0743382000364,1831.6436783000245,5,1.5793937999987975,5,1.5793937999987975,,,,,,sub103_AB,001,2026-01-31_09h43.12.854,recognitionstage,,2025.1.1,59.94718651036895,2026-01-31 09h43.48.699579 +0530,
,,,,,,,,,,,,,,,,,,,,,,,,,23,Male,Right handed,Normal,,,,,,,,,,,,,,,,,,,,,,,,,,,,,,,,,,,,,,,,,,,,,,,,,,,,,,,,,,,,,1831.643770900031,1831.660818000033,1831.660818000033,1851.6446236000047,None,sub103_AB,001,2026-01-31_09h43.12.854,recognitionstage,,2025.1.1,59.94718651036895,2026-01-31 09h43.48.699579 +0530,
