path,duration,thisN,thisTrialN,thisRepN,movie_id,target_img,lure_img,resp.keys,resp.corr,resp.rt,resp.duration,conf_radio.response,conf_radio.rt,movie.thisRepN,movie.thisTrialN,movie.thisN,movie.thisIndex,recogloop.thisRepN,recogloop.thisTrialN,recogloop.thisN,recogloop.thisIndex,thisRow.t,notes,age,gender,handedness,vision,caffeine_2h,alcohol_smoke_12h,demographics.started,demographics.stopped,Instructions.started,text1.started,key_resp.started,Instructions.stopped,key_resp.keys,key_resp.rt,key_resp.duration,instruction_2.started,text2.started,key_resp_2.started,instruction_2.stopped,key_resp_2.keys,key_resp_2.rt,key_resp_2.duration,Videos.started,movie_2.started,key_resp_6.started,movie_2.stopped,key_resp_6.stopped,Videos.stopped,movie.key_resp_6.keys,ISI.started,text.started,ISI.stopped,movie.key_resp_6.rt,movie.key_resp_6.duration,text.stopped,recognition.started,text_4.started,key_resp_3.started,recognition.stopped,key_resp_3.keys,key_resp_3.rt,key_resp_3.duration,recognition_task.started,leftimage.started,rightimage.started,resp.started,frames_question.started,right_label.started,left_label.started,recognition_task.stopped,recogloop.resp.keys,recogloop.resp.corr,recogloop.resp.rt,recogloop.resp.duration,confidence.started,conf_text.started,conf_radio.started,conf_label.started,confidence.stopped,recogloop.conf_radio.response,recogloop.conf_radio.rt,confidence,confidence_rt,thank_you.started,text_6.started,key_resp_4.started,thank_you.stopped,key_resp_4.keys,participant,session,date,expName,expVersion,psychopyVersion,frameRate,expStart,...101
,,,,,,,,,,,,,,,,,,,,,,,,24,Male,Right handed,Normal,Caffeine consumed in last 2 hours?,Alcohol or smoking in last 12 hours?,0.01760139997350052,0.08009149998542853,,,,,,,,,,,,,,,,,,,,,,,,,,,,,,,,,,,,,,,,,,,,,,,,,,,,,,,,,,,,,sub15_NB,001,2026-01-18_09h40.00.757,recognitionstage,,2025.1.1,59.553338060306345,2026-01-18 09h42.07.404627 +0530,
,,,,,,,,,,,,,,,,,,,,,,,,24,Male,Right handed,Normal,,,,,0.08012139998027124,0.10120099998312071,0.10120099998312071,9.322954699979164,space,9.215054799977224,None,,,,,,,,,,,,,,,,,,,,,,,,,,,,,,,,,,,,,,,,,,,,,,,,,,,,,,sub15_NB,001,2026-01-18_09h40.00.757,recognitionstage,,2025.1.1,59.553338060306345,2026-01-18 09h42.07.404627 +0530,
,,,,,,,,,,,,,,,,,,,,,,,,24,Male,Right handed,Normal,,,,,,,,,,,,9.323027299979003,9.336840399977518,9.336840399977518,19.971990299993195,space,10.619438299996546,None,,,,,,,,,,,,,,,,,,,,,,,,,,,,,,,,,,,,,,,,,,,,,,,sub15_NB,001,2026-01-18_09h40.00.757,recognitionstage,,2025.1.1,59.553338060306345,2026-01-18 09h42.07.404627 +0530,
Trimmed_videos/natural_10.mp4,37,44,44,0,,,,,,,,,,0,44,44,11,,,,,1498.3046618999797,,24,Male,Right handed,Normal,,,,,,,,,,,,,,,,,,,1498.2523563999857,1498.3046618999797,1498.3046618999797,1535.5709761999897,1535.5709761999897,1535.4210224999988,None,1535.5566627999942,1535.5709761999897,1538.058685899974,2.263328900007764,None,1409.3049140999792,1538.0588136999868,1538.0722904999857,1538.0722904999857,1559.772930099978,space,21.694334300002083,None,,,,,,,,,,,,,,,,,,,,,,,,,,,sub15_NB,001,2026-01-18_09h40.00.757,recognitionstage,,2025.1.1,59.553338060306345,2026-01-18 09h42.07.404627 +0530,
,,0,0,0,7,frames\Vid7_EM_T.png,frames\Vid7_L.png,['l'],1,[7.521309100004146],[None],5,9.01560199999949,,,,,0,0,0,6,1559.8371875999728,,24,Male,Right handed,Normal,,,,,,,,,,,,,,,,,,,,,,,,,,,,,,,,,,,,,,,1559.8229848999763,1559.8371875999728,1559.8371875999728,1559.8371875999728,1559.8371875999728,1559.8371875999728,1559.8371875999728,1567.3735688999877,['l'],1,[7.521309100004146],[None],1567.374761199986,1567.402958999999,1567.402958999999,1567.402958999999,1576.4058811999857,5,9.01560199999949,5,9.01560199999949,,,,,,sub15_NB,001,2026-01-18_09h40.00.757,recognitionstage,,2025.1.1,59.553338060306345,2026-01-18 09h42.07.404627 +0530,
,,1,1,0,8,frames\Vid8_BB_T.png,frames\Vid8_L.png,['l'],0,[7.703713700000662],[None],4,1.8476543000142556,,,,,0,1,1,7,1576.4707687999762,,24,Male,Right handed,Normal,,,,,,,,,,,,,,,,,,,,,,,,,,,,,,,,,,,,,,,1576.46588589999,1576.4707687999762,1576.4707687999762,1576.4707687999762,1576.4707687999762,1576.4707687999762,1576.4707687999762,1584.1911118999997,['l'],0,[7.703713700000662],[None],1584.1921519999742,1584.2049162999901,1584.2049162999901,1584.2049162999901,1586.0557310000004,4,1.8476543000142556,4,1.8476543000142556,,,,,,sub15_NB,001,2026-01-18_09h40.00.757,recognitionstage,,2025.1.1,59.553338060306345,2026-01-18 09h42.07.404627 +0530,
,,2,2,0,34,frames\Vid34_BB_T.png,frames\Vid34_L.png,['r'],0,[7.7864752000023145],[None],3,2.7652016999782063,,,,,0,2,2,33,1586.075900099997,,24,Male,Right handed,Normal,,,,,,,,,,,,,,,,,,,,,,,,,,,,,,,,,,,,,,,1586.0654043999966,1586.075900099997,1586.075900099997,1586.075900099997,1586.075900099997,1586.075900099997,1586.075900099997,1593.8731064999884,['r'],0,[7.7864752000023145],[None],1593.8738629999862,1593.8884819999803,1593.8884819999803,1593.8884819999803,1596.6565121999884,3,2.7652016999782063,3,2.7652016999782063,,,,,,sub15_NB,001,2026-01-18_09h40.00.757,recognitionstage,,2025.1.1,59.553338060306345,2026-01-18 09h42.07.404627 +0530,
,,3,3,0,32,frames\Vid32_EM_T.png,frames\Vid32_L.png,['l'],1,[4.277976200013654],[None],5,1.2987327000009827,,,,,0,3,3,31,1596.6884752999758,,24,Male,Right handed,Normal,,,,,,,,,,,,,,,,,,,,,,,,,,,,,,,,,,,,,,,1596.6712504999887,1596.6884752999758,1596.6884752999758,1596.6884752999758,1596.6884752999758,1596.6884752999758,1596.6884752999758,1600.9737217999937,['l'],1,[4.277976200013654],[None],1600.974521599972,1600.9880577999866,1600.9880577999866,1600.9880577999866,1602.2891554999806,5,1.2987327000009827,5,1.2987327000009827,,,,,,sub15_NB,001,2026-01-18_09h40.00.757,recognitionstage,,2025.1.1,59.553338060306345,2026-01-18 09h42.07.404627 +0530,
,,4,4,0,1,frames\Vid1_EM_T.png,frames\Vid1_L.png,['l'],0,[4.0984040000184905],[None],5,1.5820702999772038,,,,,0,4,4,0,1602.3559481999837,,24,Male,Right handed,Normal,,,,,,,,,,,,,,,,,,,,,,,,,,,,,,,,,,,,,,,1602.3369258999883,1602.3559481999837,1602.3559481999837,1602.3559481999837,1602.3559481999837,1602.3559481999837,1602.3559481999837,1606.456686199992,['l'],0,[4.0984040000184905],[None],1606.4575385999924,1606.4718462999735,1606.4718462999735,1606.4718462999735,1608.0560662999924,5,1.5820702999772038,5,1.5820702999772038,,,,,,sub15_NB,001,2026-01-18_09h40.00.757,recognitionstage,,2025.1.1,59.553338060306345,2026-01-18 09h42.07.404627 +0530,
,,5,5,0,25,frames\Vid25_BB_T.png,frames\Vid25_L.png,['l'],1,[13.595076500001596],[None],3,2.3475512000150047,,,,,0,5,5,24,1608.091341899999,,24,Male,Right handed,Normal,,,,,,,,,,,,,,,,,,,,,,,,,,,,,,,,,,,,,,,1608.0691205999756,1608.091341899999,1608.091341899999,1608.091341899999,1608.091341899999,1608.091341899999,1608.091341899999,1621.6914436999941,['l'],1,[13.595076500001596],[None],1621.692683799978,1621.7201470999862,1621.7201470999862,1621.7201470999862,1624.056221499981,3,2.3475512000150047,3,2.3475512000150047,,,,,,sub15_NB,001,2026-01-18_09h40.00.757,recognitionstage,,2025.1.1,59.553338060306345,2026-01-18 09h42.07.404627 +0530,
,,6,6,0,20,frames\Vid20_EM_T.png,frames\Vid20_L.png,['r'],1,[4.716538199980278],[None],4,1.2146342999767512,,,,,0,6,6,19,1624.0738377999805,,24,Male,Right handed,Normal,,,,,,,,,,,,,,,,,,,,,,,,,,,,,,,,,,,,,,,1624.0647545999964,1624.0738377999805,1624.0738377999805,1624.0738377999805,1624.0738377999805,1624.0738377999805,1624.0738377999805,1628.7909386999963,['r'],1,[4.716538199980278],[None],1628.791938099981,1628.8054287999985,1628.8054287999985,1628.8054287999985,1630.022322899982,4,1.2146342999767512,4,1.2146342999767512,,,,,,sub15_NB,001,2026-01-18_09h40.00.757,recognitionstage,,2025.1.1,59.553338060306345,2026-01-18 09h42.07.404627 +0530,
,,7,7,0,12,frames\Vid12_EM_T.png,frames\Vid12_L.png,['l'],0,[4.309559399989666],[None],3,1.1989121999940835,,,,,0,7,7,11,1630.0888473999803,,24,Male,Right handed,Normal,,,,,,,,,,,,,,,,,,,,,,,,,,,,,,,,,,,,,,,1630.0676243999915,1630.0888473999803,1630.0888473999803,1630.0888473999803,1630.0888473999803,1630.0888473999803,1630.0888473999803,1634.4076171999914,['l'],0,[4.309559399989666],[None],1634.4083514999948,1634.4215747999842,1634.4215747999842,1634.4215747999842,1635.6226128999842,3,1.1989121999940835,3,1.1989121999940835,,,,,,sub15_NB,001,2026-01-18_09h40.00.757,recognitionstage,,2025.1.1,59.553338060306345,2026-01-18 09h42.07.404627 +0530,
,,8,8,0,6,frames\Vid6_BB_T.png,frames\Vid6_L.png,['r'],1,[5.65854100001161],[None],4,1.0818362999998499,,,,,0,8,8,5,1635.6918966999801,,24,Male,Right handed,Normal,,,,,,,,,,,,,,,,,,,,,,,,,,,,,,,,,,,,,,,1635.6673544999794,1635.6918966999801,1635.6918966999801,1635.6918966999801,1635.6918966999801,1635.6918966999801,1635.6918966999801,1641.3569288999715,['r'],1,[5.65854100001161],[None],1641.3578067999915,1641.372025299992,1641.372025299992,1641.372025299992,1642.4557844999945,4,1.0818362999998499,4,1.0818362999998499,,,,,,sub15_NB,001,2026-01-18_09h40.00.757,recognitionstage,,2025.1.1,59.553338060306345,2026-01-18 09h42.07.404627 +0530,
,,9,9,0,29,frames\Vid29_BB_T.png,frames\Vid29_L.png,['l'],1,[3.2905784000176936],[None],5,1.3481482999923173,,,,,0,9,9,28,1642.4918493999867,,24,Male,Right handed,Normal,,,,,,,,,,,,,,,,,,,,,,,,,,,,,,,,,,,,,,,1642.4676294999954,1642.4918493999867,1642.4918493999867,1642.4918493999867,1642.4918493999867,1642.4918493999867,1642.4918493999867,1645.7905121999793,['l'],1,[3.2905784000176936],[None],1645.7915786999802,1645.8054584999918,1645.8054584999918,1645.8054584999918,1647.1557624999841,5,1.3481482999923173,5,1.3481482999923173,,,,,,sub15_NB,001,2026-01-18_09h40.00.757,recognitionstage,,2025.1.1,59.553338060306345,2026-01-18 09h42.07.404627 +0530,
,,10,10,0,3,frames\Vid3_BB_T.png,frames\Vid3_L.png,['l'],1,[4.704587099986384],[None],5,1.2980100999993738,,,,,0,10,10,2,1647.2057877999905,,24,Male,Right handed,Normal,,,,,,,,,,,,,,,,,,,,,,,,,,,,,,,,,,,,,,,1647.1943216999935,1647.2057877999905,1647.2057877999905,1647.2057877999905,1647.2057877999905,1647.2057877999905,1647.2057877999905,1651.923830499989,['l'],1,[4.704587099986384],[None],1651.924729099992,1651.938092299999,1651.938092299999,1651.938092299999,1653.2398868999735,5,1.2980100999993738,5,1.2980100999993738,,,,,,sub15_NB,001,2026-01-18_09h40.00.757,recognitionstage,,2025.1.1,59.553338060306345,2026-01-18 09h42.07.404627 +0530,
,,11,11,0,9,frames\Vid9_EM_T.png,frames\Vid9_L.png,['l'],1,[4.762678500002949],[None],2,1.6822046000161208,,,,,0,11,11,8,1653.291628099978,,24,Male,Right handed,Normal,,,,,,,,,,,,,,,,,,,,,,,,,,,,,,,,,,,,,,,1653.2777938999934,1653.291628099978,1653.291628099978,1653.291628099978,1653.291628099978,1653.291628099978,1653.291628099978,1658.0566547999915,['l'],1,[4.762678500002949],[None],1658.0574985999847,1658.071925199998,1658.071925199998,1658.071925199998,1659.7559336999839,2,1.6822046000161208,2,1.6822046000161208,,,,,,sub15_NB,001,2026-01-18_09h40.00.757,recognitionstage,,2025.1.1,59.553338060306345,2026-01-18 09h42.07.404627 +0530,
,,12,12,0,4,frames\Vid4_EM_T.png,frames\Vid4_L.png,['l'],1,[3.0375771000108216],[None],5,0.9648638000071514,,,,,0,12,12,3,1659.824820299982,,24,Male,Right handed,Normal,,,,,,,,,,,,,,,,,,,,,,,,,,,,,,,,,,,,,,,1659.7998869000003,1659.824820299982,1659.824820299982,1659.824820299982,1659.824820299982,1659.824820299982,1659.824820299982,1662.8742548999726,['l'],1,[3.0375771000108216],[None],1662.875181899988,1662.888159299997,1662.888159299997,1662.888159299997,1663.855912799976,5,0.9648638000071514,5,0.9648638000071514,,,,,,sub15_NB,001,2026-01-18_09h40.00.757,recognitionstage,,2025.1.1,59.553338060306345,2026-01-18 09h42.07.404627 +0530,
,,13,13,0,28,frames\Vid28_EM_T.png,frames\Vid28_L.png,['l'],1,[2.315148699999554],[None],5,1.9315585999866016,,,,,0,13,13,27,1663.8912310999876,,24,Male,Right handed,Normal,,,,,,,,,,,,,,,,,,,,,,,,,,,,,,,,,,,,,,,1663.8677628999867,1663.8912310999876,1663.8912310999876,1663.8912310999876,1663.8912310999876,1663.8912310999876,1663.8912310999876,1666.2075075999892,['l'],1,[2.315148699999554],[None],1666.2082384999958,1666.2215062999749,1666.2215062999749,1666.2215062999749,1668.1558923999837,5,1.9315585999866016,5,1.9315585999866016,,,,,,sub15_NB,001,2026-01-18_09h40.00.757,recognitionstage,,2025.1.1,59.553338060306345,2026-01-18 09h42.07.404627 +0530,
,,14,14,0,17,frames\Vid17_BB_T.png,frames\Vid17_L.png,['l'],1,[3.753486600005999],[None],5,1.1821452000003774,,,,,0,14,14,16,1668.188877699984,,24,Male,Right handed,Normal,,,,,,,,,,,,,,,,,,,,,,,,,,,,,,,,,,,,,,,1668.179090199992,1668.188877699984,1668.188877699984,1668.188877699984,1668.188877699984,1668.188877699984,1668.188877699984,1671.9566291999945,['l'],1,[3.753486600005999],[None],1671.957481599995,1671.9719786999922,1671.9719786999922,1671.9719786999922,1673.1558820999926,5,1.1821452000003774,5,1.1821452000003774,,,,,,sub15_NB,001,2026-01-18_09h40.00.757,recognitionstage,,2025.1.1,59.553338060306345,2026-01-18 09h42.07.404627 +0530,
,,15,15,0,15,frames\Vid15_BB_T.png,frames\Vid15_L.png,['r'],1,[4.806526000000304],[None],3,1.065257099980954,,,,,0,15,15,14,1673.223895299976,,24,Male,Right handed,Normal,,,,,,,,,,,,,,,,,,,,,,,,,,,,,,,,,,,,,,,1673.2041222999978,1673.223895299976,1673.223895299976,1673.223895299976,1673.223895299976,1673.223895299976,1673.223895299976,1678.040643299988,['r'],1,[4.806526000000304],[None],1678.0414571999863,1678.0550665999763,1678.0550665999763,1678.0550665999763,1679.1227802999783,3,1.065257099980954,3,1.065257099980954,,,,,,sub15_NB,001,2026-01-18_09h40.00.757,recognitionstage,,2025.1.1,59.553338060306345,2026-01-18 09h42.07.404627 +0530,
,,16,16,0,24,frames\Vid24_BB_T.png,frames\Vid24_L.png,['l'],0,[3.536553800018737],[None],5,0.7313327000010759,,,,,0,16,16,23,1679.1579311999958,,24,Male,Right handed,Normal,,,,,,,,,,,,,,,,,,,,,,,,,,,,,,,,,,,,,,,1679.1371361999772,1679.1579311999958,1679.1579311999958,1679.1579311999958,1679.1579311999958,1679.1579311999958,1679.1579311999958,1682.707501899975,['l'],0,[3.536553800018737],[None],1682.7083930999797,1682.7215768999886,1682.7215768999886,1682.7215768999886,1683.4559049999807,5,0.7313327000010759,5,0.7313327000010759,,,,,,sub15_NB,001,2026-01-18_09h40.00.757,recognitionstage,,2025.1.1,59.553338060306345,2026-01-18 09h42.07.404627 +0530,
,,17,17,0,19,frames\Vid19_BB_T.png,frames\Vid19_L.png,['l'],1,[4.766052199993283],[None],5,1.0150461999874096,,,,,0,17,17,18,1683.4884965999809,,24,Male,Right handed,Normal,,,,,,,,,,,,,,,,,,,,,,,,,,,,,,,,,,,,,,,1683.4687038999982,1683.4884965999809,1683.4884965999809,1683.4884965999809,1683.4884965999809,1683.4884965999809,1683.4884965999809,1688.2573300999939,['l'],1,[4.766052199993283],[None],1688.2581222999725,1688.271891899989,1688.271891899989,1688.271891899989,1689.289292099973,5,1.0150461999874096,5,1.0150461999874096,,,,,,sub15_NB,001,2026-01-18_09h40.00.757,recognitionstage,,2025.1.1,59.553338060306345,2026-01-18 09h42.07.404627 +0530,
,,18,18,0,40,frames\Vid40_EM_T.png,frames\Vid40_L.png,['r'],1,[4.515846399997827],[None],4,1.0979511000041384,,,,,0,18,18,39,1689.3226051999955,,24,Male,Right handed,Normal,,,,,,,,,,,,,,,,,,,,,,,,,,,,,,,,,,,,,,,1689.3003713999933,1689.3226051999955,1689.3226051999955,1689.3226051999955,1689.3226051999955,1689.3226051999955,1689.3226051999955,1693.840725999995,['r'],1,[4.515846399997827],[None],1693.8416669999715,1693.8549306999776,1693.8549306999776,1693.8549306999776,1694.9560122999828,4,1.0979511000041384,4,1.0979511000041384,,,,,,sub15_NB,001,2026-01-18_09h40.00.757,recognitionstage,,2025.1.1,59.553338060306345,2026-01-18 09h42.07.404627 +0530,
,,19,19,0,36,frames\Vid36_BB_T.png,frames\Vid36_L.png,['l'],1,[5.370162699982757],[None],5,2.194938300002832,,,,,0,19,19,35,1694.988406599994,,24,Male,Right handed,Normal,,,,,,,,,,,,,,,,,,,,,,,,,,,,,,,,,,,,,,,1694.9688669999887,1694.988406599994,1694.988406599994,1694.988406599994,1694.988406599994,1694.988406599994,1694.988406599994,1700.3758585999894,['l'],1,[5.370162699982757],[None],1700.377479399991,1700.4042936999758,1700.4042936999758,1700.4042936999758,1702.5891700999928,5,2.194938300002832,5,2.194938300002832,,,,,,sub15_NB,001,2026-01-18_09h40.00.757,recognitionstage,,2025.1.1,59.553338060306345,2026-01-18 09h42.07.404627 +0530,
,,20,20,0,2,frames\Vid2_BB_T.png,frames\Vid2_L.png,['l'],1,[4.023191599990241],[None],5,1.3649063000048045,,,,,0,20,20,1,1702.6393729999836,,24,Male,Right handed,Normal,,,,,,,,,,,,,,,,,,,,,,,,,,,,,,,,,,,,,,,1702.6270019999938,1702.6393729999836,1702.6393729999836,1702.6393729999836,1702.6393729999836,1702.6393729999836,1702.6393729999836,1706.6734252999886,['l'],1,[4.023191599990241],[None],1706.674279299972,1706.6886651999957,1706.6886651999957,1706.6886651999957,1708.0559048999858,5,1.3649063000048045,5,1.3649063000048045,,,,,,sub15_NB,001,2026-01-18_09h40.00.757,recognitionstage,,2025.1.1,59.553338060306345,2026-01-18 09h42.07.404627 +0530,
,,21,21,0,23,frames\Vid23_EM_T.png,frames\Vid23_L.png,['l'],1,[3.131092299998272],[None],3,1.0976100000261795,,,,,0,21,21,22,1708.0914211999916,,24,Male,Right handed,Normal,,,,,,,,,,,,,,,,,,,,,,,,,,,,,,,,,,,,,,,1708.0704995999986,1708.0914211999916,1708.0914211999916,1708.0914211999916,1708.0914211999916,1708.0914211999916,1708.0914211999916,1711.2240288999747,['l'],1,[3.131092299998272],[None],1711.2249060999893,1711.2386615999858,1711.2386615999858,1711.2386615999858,1712.3392406999774,3,1.0976100000261795,3,1.0976100000261795,,,,,,sub15_NB,001,2026-01-18_09h40.00.757,recognitionstage,,2025.1.1,59.553338060306345,2026-01-18 09h42.07.404627 +0530,
,,22,22,0,39,frames\Vid39_BB_T.png,frames\Vid39_L.png,['l'],1,[3.3532746999990195],[None],5,0.9314469999808352,,,,,0,22,22,38,1712.3571763999935,,24,Male,Right handed,Normal,,,,,,,,,,,,,,,,,,,,,,,,,,,,,,,,,,,,,,,1712.3471502999892,1712.3571763999935,1712.3571763999935,1712.3571763999935,1712.3571763999935,1712.3571763999935,1712.3571763999935,1715.7238994999789,['l'],1,[3.3532746999990195],[None],1715.724803899997,1715.7387042999908,1715.7387042999908,1715.7387042999908,1716.6733829999866,5,0.9314469999808352,5,0.9314469999808352,,,,,,sub15_NB,001,2026-01-18_09h40.00.757,recognitionstage,,2025.1.1,59.553338060306345,2026-01-18 09h42.07.404627 +0530,
,,23,23,0,31,frames\Vid31_EM_T.png,frames\Vid31_L.png,['l'],1,[4.868519500014372],[None],5,2.1140423999750055,,,,,0,23,23,30,1716.6899978999863,,24,Male,Right handed,Normal,,,,,,,,,,,,,,,,,,,,,,,,,,,,,,,,,,,,,,,1716.6820863999892,1716.6899978999863,1716.6899978999863,1716.6899978999863,1716.6899978999863,1716.6899978999863,1716.6899978999863,1721.574233899999,['l'],1,[4.868519500014372],[None],1721.5751006999926,1721.5882736999774,1721.5882736999774,1721.5882736999774,1723.7061308999837,5,2.1140423999750055,5,2.1140423999750055,,,,,,sub15_NB,001,2026-01-18_09h40.00.757,recognitionstage,,2025.1.1,59.553338060306345,2026-01-18 09h42.07.404627 +0530,
,,24,24,0,18,frames\Vid18_EM_T.png,frames\Vid18_L.png,['l'],1,[2.4043299999902956],[None],3,0.8324464000179432,,,,,0,24,24,17,1723.7382647999912,,24,Male,Right handed,Normal,,,,,,,,,,,,,,,,,,,,,,,,,,,,,,,,,,,,,,,1723.719534599979,1723.7382647999912,1723.7382647999912,1723.7382647999912,1723.7382647999912,1723.7382647999912,1723.7382647999912,1726.1566131999716,['l'],1,[2.4043299999902956],[None],1726.1573827999819,1726.1717598999967,1726.1717598999967,1726.1717598999967,1727.0057869999728,3,0.8324464000179432,3,0.8324464000179432,,,,,,sub15_NB,001,2026-01-18_09h40.00.757,recognitionstage,,2025.1.1,59.553338060306345,2026-01-18 09h42.07.404627 +0530,
,,25,25,0,26,frames\Vid26_EM_T.png,frames\Vid26_L.png,['l'],1,[3.039890199986985],[None],5,0.9986864999809768,,,,,0,25,25,25,1727.0385956999962,,24,Male,Right handed,Normal,,,,,,,,,,,,,,,,,,,,,,,,,,,,,,,,,,,,,,,1727.021803199983,1727.0385956999962,1727.0385956999962,1727.0385956999962,1727.0385956999962,1727.0385956999962,1727.0385956999962,1730.0902864999953,['l'],1,[3.039890199986985],[None],1730.0910903999757,1730.1049295999983,1730.1049295999983,1730.1049295999983,1731.1060589999834,5,0.9986864999809768,5,0.9986864999809768,,,,,,sub15_NB,001,2026-01-18_09h40.00.757,recognitionstage,,2025.1.1,59.553338060306345,2026-01-18 09h42.07.404627 +0530,
,,26,26,0,21,frames\Vid21_BB_T.png,frames\Vid21_L.png,['r'],1,[5.284348200017121],[None],5,1.0280462999944575,,,,,0,26,26,20,1731.1387219999742,,24,Male,Right handed,Normal,,,,,,,,,,,,,,,,,,,,,,,,,,,,,,,,,,,,,,,1731.1185805999849,1731.1387219999742,1731.1387219999742,1731.1387219999742,1731.1387219999742,1731.1387219999742,1731.1387219999742,1736.4262214999762,['r'],1,[5.284348200017121],[None],1736.4278593999916,1736.4535421999753,1736.4535421999753,1736.4535421999753,1737.4725311999791,5,1.0280462999944575,5,1.0280462999944575,,,,,,sub15_NB,001,2026-01-18_09h40.00.757,recognitionstage,,2025.1.1,59.553338060306345,2026-01-18 09h42.07.404627 +0530,
,,27,27,0,16,frames\Vid16_EM_T.png,frames\Vid16_L.png,['r'],1,[8.835935499984771],[None],3,0.8133018999942578,,,,,0,27,27,15,1737.5228204999876,,24,Male,Right handed,Normal,,,,,,,,,,,,,,,,,,,,,,,,,,,,,,,,,,,,,,,1737.5103873999906,1737.5228204999876,1737.5228204999876,1737.5228204999876,1737.5228204999876,1737.5228204999876,1737.5228204999876,1746.3749001999968,['r'],1,[8.835935499984771],[None],1746.3758899999957,1746.3886264999746,1746.3886264999746,1746.3886264999746,1747.2064580999722,3,0.8133018999942578,3,0.8133018999942578,,,,,,sub15_NB,001,2026-01-18_09h40.00.757,recognitionstage,,2025.1.1,59.553338060306345,2026-01-18 09h42.07.404627 +0530,
,,28,28,0,35,frames\Vid35_EM_T.png,frames\Vid35_L.png,['l'],1,[3.0924560999847017],[None],5,0.8496369000058621,,,,,0,28,28,34,1747.226062599977,,24,Male,Right handed,Normal,,,,,,,,,,,,,,,,,,,,,,,,,,,,,,,,,,,,,,,1747.216374199983,1747.226062599977,1747.226062599977,1747.226062599977,1747.226062599977,1747.226062599977,1747.226062599977,1750.3228052999766,['l'],1,[3.0924560999847017],[None],1750.323413199978,1750.3393458999926,1750.3393458999926,1750.3393458999926,1751.1893677999906,5,0.8496369000058621,5,0.8496369000058621,,,,,,sub15_NB,001,2026-01-18_09h40.00.757,recognitionstage,,2025.1.1,59.553338060306345,2026-01-18 09h42.07.404627 +0530,
,,29,29,0,27,frames\Vid27_BB_T.png,frames\Vid27_L.png,['r'],1,[3.5532525999879],[None],5,0.9321005000092555,,,,,0,29,29,26,1751.2218113999988,,24,Male,Right handed,Normal,,,,,,,,,,,,,,,,,,,,,,,,,,,,,,,,,,,,,,,1751.1999362999923,1751.2218113999988,1751.2218113999988,1751.2218113999988,1751.2218113999988,1751.2218113999988,1751.2218113999988,1754.7904187999957,['r'],1,[3.5532525999879],[None],1754.7914523999789,1754.805486199999,1754.805486199999,1754.805486199999,1755.740013099974,5,0.9321005000092555,5,0.9321005000092555,,,,,,sub15_NB,001,2026-01-18_09h40.00.757,recognitionstage,,2025.1.1,59.553338060306345,2026-01-18 09h42.07.404627 +0530,
,,30,30,0,33,frames\Vid33_BB_T.png,frames\Vid33_L.png,['l'],1,[7.194627100019716],[None],5,0.7817437000048812,,,,,0,30,30,32,1755.771995499992,,24,Male,Right handed,Normal,,,,,,,,,,,,,,,,,,,,,,,,,,,,,,,,,,,,,,,1755.7514411999728,1755.771995499992,1755.771995499992,1755.771995499992,1755.771995499992,1755.771995499992,1755.771995499992,1762.9741434999742,['l'],1,[7.194627100019716],[None],1762.9752212999738,1762.9887002999894,1762.9887002999894,1762.9887002999894,1763.7727944999933,5,0.7817437000048812,5,0.7817437000048812,,,,,,sub15_NB,001,2026-01-18_09h40.00.757,recognitionstage,,2025.1.1,59.553338060306345,2026-01-18 09h42.07.404627 +0530,
,,31,31,0,38,frames\Vid38_EM_T.png,frames\Vid38_L.png,['r'],1,[4.1454306000086945],[None],2,1.447114500013413,,,,,0,31,31,37,1763.8051623999781,,24,Male,Right handed,Normal,,,,,,,,,,,,,,,,,,,,,,,,,,,,,,,,,,,,,,,1763.7834427999915,1763.8051623999781,1763.8051623999781,1763.8051623999781,1763.8051623999781,1763.8051623999781,1763.8051623999781,1767.957542499993,['r'],1,[4.1454306000086945],[None],1767.9588667999778,1767.971652999986,1767.971652999986,1767.971652999986,1769.4225615999894,2,1.447114500013413,2,1.447114500013413,,,,,,sub15_NB,001,2026-01-18_09h40.00.757,recognitionstage,,2025.1.1,59.553338060306345,2026-01-18 09h42.07.404627 +0530,
,,32,32,0,13,frames\Vid13_BB_T.png,frames\Vid13_L.png,['l'],0,[3.158073800004786],[None],3,0.9155036000011023,,,,,0,32,32,12,1769.4724982999905,,24,Male,Right handed,Normal,,,,,,,,,,,,,,,,,,,,,,,,,,,,,,,,,,,,,,,1769.45710889998,1769.4724982999905,1769.4724982999905,1769.4724982999905,1769.4724982999905,1769.4724982999905,1769.4724982999905,1772.6399495999794,['l'],0,[3.158073800004786],[None],1772.6409213999868,1772.655484399991,1772.655484399991,1772.655484399991,1773.572316099977,3,0.9155036000011023,3,0.9155036000011023,,,,,,sub15_NB,001,2026-01-18_09h40.00.757,recognitionstage,,2025.1.1,59.553338060306345,2026-01-18 09h42.07.404627 +0530,
,,33,33,0,14,frames\Vid14_BB_T.png,frames\Vid14_L.png,['r'],1,[6.885333800018998],[None],3,0.9657927000080235,,,,,0,33,33,13,1773.625179499999,,24,Male,Right handed,Normal,,,,,,,,,,,,,,,,,,,,,,,,,,,,,,,,,,,,,,,1773.6161816999956,1773.625179499999,1773.625179499999,1773.625179499999,1773.625179499999,1773.625179499999,1773.625179499999,1780.523086399975,['r'],1,[6.885333800018998],[None],1780.5237834999862,1780.5390146999853,1780.5390146999853,1780.5390146999853,1781.5061203999794,3,0.9657927000080235,3,0.9657927000080235,,,,,,sub15_NB,001,2026-01-18_09h40.00.757,recognitionstage,,2025.1.1,59.553338060306345,2026-01-18 09h42.07.404627 +0530,
,,34,34,0,5,frames\Vid5_EM_T.png,frames\Vid5_L.png,['l'],1,[5.296391000010772],[None],5,0.8645803999970667,,,,,0,34,34,4,1781.5582999999751,,24,Male,Right handed,Normal,,,,,,,,,,,,,,,,,,,,,,,,,,,,,,,,,,,,,,,1781.533849999978,1781.5582999999751,1781.5582999999751,1781.5582999999751,1781.5582999999751,1781.5582999999751,1781.5582999999751,1786.8572556999861,['l'],1,[5.296391000010772],[None],1786.8581635999726,1786.8720659999817,1786.8720659999817,1786.8720659999817,1787.7399548999965,5,0.8645803999970667,5,0.8645803999970667,,,,,,sub15_NB,001,2026-01-18_09h40.00.757,recognitionstage,,2025.1.1,59.553338060306345,2026-01-18 09h42.07.404627 +0530,
,,35,35,0,22,frames\Vid22_EM_T.png,frames\Vid22_L.png,['l'],0,[1.8804536000243388],[None],5,0.8309504999779165,,,,,0,35,35,21,1787.7740928999847,,24,Male,Right handed,Normal,,,,,,,,,,,,,,,,,,,,,,,,,,,,,,,,,,,,,,,1787.7550600999966,1787.7740928999847,1787.7740928999847,1787.7740928999847,1787.7740928999847,1787.7740928999847,1787.7740928999847,1789.6577896999952,['l'],0,[1.8804536000243388],[None],1789.658674699982,1789.6719104999793,1789.6719104999793,1789.6719104999793,1790.5061245999823,5,0.8309504999779165,5,0.8309504999779165,,,,,,sub15_NB,001,2026-01-18_09h40.00.757,recognitionstage,,2025.1.1,59.553338060306345,2026-01-18 09h42.07.404627 +0530,
,,36,36,0,30,frames\Vid30_EM_T.png,frames\Vid30_L.png,['l'],1,[9.84242830000585],[None],4,1.1168667000019923,,,,,0,36,36,29,1790.52414329999,,24,Male,Right handed,Normal,,,,,,,,,,,,,,,,,,,,,,,,,,,,,,,,,,,,,,,1790.5160708999902,1790.52414329999,1790.52414329999,1790.52414329999,1790.52414329999,1790.52414329999,1790.52414329999,1800.372857499984,['l'],1,[9.84242830000585],[None],1800.3736614999943,1800.389096799976,1800.389096799976,1800.389096799976,1801.505681599985,4,1.1168667000019923,4,1.1168667000019923,,,,,,sub15_NB,001,2026-01-18_09h40.00.757,recognitionstage,,2025.1.1,59.553338060306345,2026-01-18 09h42.07.404627 +0530,
,,37,37,0,37,frames\Vid37_BB_T.png,frames\Vid37_L.png,['r'],1,[5.55581700001494],[None],5,0.9815981000137981,,,,,0,37,37,36,1801.5387727999769,,24,Male,Right handed,Normal,,,,,,,,,,,,,,,,,,,,,,,,,,,,,,,,,,,,,,,1801.5171971999807,1801.5387727999769,1801.5387727999769,1801.5387727999769,1801.5387727999769,1801.5387727999769,1801.5387727999769,1807.107257799973,['r'],1,[5.55581700001494],[None],1807.108388099994,1807.122261899989,1807.122261899989,1807.122261899989,1808.1058317999996,5,0.9815981000137981,5,0.9815981000137981,,,,,,sub15_NB,001,2026-01-18_09h40.00.757,recognitionstage,,2025.1.1,59.553338060306345,2026-01-18 09h42.07.404627 +0530,
,,38,38,0,11,frames\Vid11_EM_T.png,frames\Vid11_L.png,['l'],1,[2.258630500000436],[None],5,0.8643987999821547,,,,,0,38,38,10,1808.156067599979,,24,Male,Right handed,Normal,,,,,,,,,,,,,,,,,,,,,,,,,,,,,,,,,,,,,,,1808.1476334999898,1808.156067599979,1808.156067599979,1808.156067599979,1808.156067599979,1808.156067599979,1808.156067599979,1810.4240776999795,['l'],1,[2.258630500000436],[None],1810.4250016999722,1810.4389007999853,1810.4389007999853,1810.4389007999853,1811.3059266999771,5,0.8643987999821547,5,0.8643987999821547,,,,,,sub15_NB,001,2026-01-18_09h40.00.757,recognitionstage,,2025.1.1,59.553338060306345,2026-01-18 09h42.07.404627 +0530,
,,39,39,0,10,frames\Vid10_BB_T.png,frames\Vid10_L.png,['l'],0,[4.207896999985678],[None],5,0.7813888000091538,,,,,0,39,39,9,1811.3588096999738,,24,Male,Right handed,Normal,,,,,,,,,,,,,,,,,,,,,,,,,,,,,,,,,,,,,,,1811.347739299992,1811.3588096999738,1811.3588096999738,1811.3588096999738,1811.3588096999738,1811.3588096999738,1811.3588096999738,1815.574215599976,['l'],0,[4.207896999985678],[None],1815.575049499981,1815.5884521999978,1815.5884521999978,1815.5884521999978,1816.372767599998,5,0.7813888000091538,5,0.7813888000091538,,,,,,sub15_NB,001,2026-01-18_09h40.00.757,recognitionstage,,2025.1.1,59.553338060306345,2026-01-18 09h42.07.404627 +0530,
,,,,,,,,,,,,,,,,,,,,,,,,24,Male,Right handed,Normal,,,,,,,,,,,,,,,,,,,,,,,,,,,,,,,,,,,,,,,,,,,,,,,,,,,,,,,,,,,,1816.372864999983,1816.3891227999993,1816.3891227999993,1836.374470699986,None,sub15_NB,001,2026-01-18_09h40.00.757,recognitionstage,,2025.1.1,59.553338060306345,2026-01-18 09h42.07.404627 +0530,
