path,duration,is_repeat,thisN,thisTrialN,thisRepN,movie_id,target_img,lure_img,resp.keys,resp.corr,resp.rt,resp.duration,conf_radio.response,conf_radio.rt,movie.thisRepN,movie.thisTrialN,movie.thisN,movie.thisIndex,recogloop.thisRepN,recogloop.thisTrialN,recogloop.thisN,recogloop.thisIndex,thisRow.t,notes,age,gender,handedness,vision,caffeine_2h,alcohol_smoke_12h,demographics.started,demographics.stopped,Instructions.started,text1.started,key_resp.started,Instructions.stopped,key_resp.keys,key_resp.rt,key_resp.duration,instruction_2.started,text2.started,key_resp_2.started,instruction_2.stopped,key_resp_2.keys,key_resp_2.rt,key_resp_2.duration,Videos.started,movie_2.started,vigilance_resp.started,movie_2.stopped,Videos.stopped,movie.vigilance_resp.keys,vigilance_pressed,vigilance_correct,ISI.started,text.started,text.stopped,ISI.stopped,movie.vigilance_resp.rt,movie.vigilance_resp.duration,recognition.started,text_4.started,key_resp_3.started,recognition.stopped,key_resp_3.keys,key_resp_3.rt,key_resp_3.duration,recognition_task.started,leftimage.started,rightimage.started,resp.started,frames_question.started,right_label.started,left_label.started,recognition_task.stopped,recogloop.resp.keys,recogloop.resp.corr,recogloop.resp.rt,recogloop.resp.duration,confidence.started,conf_text.started,conf_radio.started,conf_label.started,confidence.stopped,recogloop.conf_radio.response,recogloop.conf_radio.rt,confidence,confidence_rt,thank_you.started,text_6.started,key_resp_4.started,thank_you.stopped,key_resp_4.keys,participant,session,date,expName,expVersion,psychopyVersion,frameRate,expStart,...103
,,,,,,,,,,,,,,,,,,,,,,,,,20,Male,Right handed,Normal,Caffeine consumed in last 2 hours?,Alcohol or smoking in last 12 hours?,0.015360399993369356,0.07395029999315739,,,,,,,,,,,,,,,,,,,,,,,,,,,,,,,,,,,,,,,,,,,,,,,,,,,,,,,,,,,,,,sub179_NB,001,2026-02-04_14h03.08.665,recognitionstage,,2025.1.1,60.0030481536079,2026-02-04 14h03.38.624851 +0530,
,,,,,,,,,,,,,,,,,,,,,,,,,20,Male,Right handed,Normal,,,,,0.07397779999882914,0.08249869997962378,0.08249869997962378,12.385984399996232,space,12.28981119999662,None,,,,,,,,,,,,,,,,,,,,,,,,,,,,,,,,,,,,,,,,,,,,,,,,,,,,,,,sub179_NB,001,2026-02-04_14h03.08.665,recognitionstage,,2025.1.1,60.0030481536079,2026-02-04 14h03.38.624851 +0530,
,,,,,,,,,,,,,,,,,,,,,,,,,20,Male,Right handed,Normal,,,,,,,,,,,,12.386037499993108,12.401409299985971,12.401409299985971,29.585397399991052,space,17.179080000001704,None,,,,,,,,,,,,,,,,,,,,,,,,,,,,,,,,,,,,,,,,,,,,,,,,sub179_NB,001,2026-02-04_14h03.08.665,recognitionstage,,2025.1.1,60.0030481536079,2026-02-04 14h03.38.624851 +0530,
Trimmed_videos/natural_12.mp4,48,0,44,44,0,,,,,,,,,,0,44,44,13,,,,,1510.4504186999984,,20,Male,Right handed,Normal,,,,,,,,,,,,,,,,,,,1510.4068091999798,1510.4504186999984,1510.4504186999984,1559.0485210999905,1558.907145699981,None,0,1,1559.0423233999754,1559.0485210999905,1561.551200499991,1561.5361886000028,1.6369505999900866,None,1561.5362752999936,1561.551200499991,1561.551200499991,1628.085739799979,space,66.53296469998895,None,,,,,,,,,,,,,,,,,,,,,,,,,,,sub179_NB,001,2026-02-04_14h03.08.665,recognitionstage,,2025.1.1,60.0030481536079,2026-02-04 14h03.38.624851 +0530,
,,,0,0,0,39,frames\Vid39_BB_T.png,frames\Vid39_L.png,['r'],0,[17.383710499998415],[None],5,13.396754699992016,,,,,0,0,0,38,1628.1321970999998,,20,Male,Right handed,Normal,,,,,,,,,,,,,,,,,,,,,,,,,,,,,,,,,,,,,,,,1628.121633599978,1628.1321970999998,1628.1321970999998,1628.1321970999998,1628.1321970999998,1628.1321970999998,1628.1321970999998,1645.5198232999828,['r'],0,[17.383710499998415],[None],1645.521063799999,1645.548038799985,1645.548038799985,1645.548038799985,1658.9350615000003,5,13.396754699992016,5,13.396754699992016,,,,,,sub179_NB,001,2026-02-04_14h03.08.665,recognitionstage,,2025.1.1,60.0030481536079,2026-02-04 14h03.38.624851 +0530,
,,,1,1,0,13,frames\Vid13_BB_T.png,frames\Vid13_L.png,['l'],1,[9.468494999979157],[None],5,2.899083900003461,,,,,0,1,1,12,1658.9992764999915,,20,Male,Right handed,Normal,,,,,,,,,,,,,,,,,,,,,,,,,,,,,,,,,,,,,,,,1658.9868834999797,1658.9992764999915,1658.9992764999915,1658.9992764999915,1658.9992764999915,1658.9992764999915,1658.9992764999915,1668.4685678999813,['l'],1,[9.468494999979157],[None],1668.4690924999886,1668.483863100002,1668.483863100002,1668.483863100002,1671.384872900002,5,2.899083900003461,5,2.899083900003461,,,,,,sub179_NB,001,2026-02-04_14h03.08.665,recognitionstage,,2025.1.1,60.0030481536079,2026-02-04 14h03.38.624851 +0530,
,,,2,2,0,19,frames\Vid19_BB_T.png,frames\Vid19_L.png,['r'],0,[12.547281600011047],[None],5,1.8971616000053473,,,,,0,2,2,18,1671.4324968,,20,Male,Right handed,Normal,,,,,,,,,,,,,,,,,,,,,,,,,,,,,,,,,,,,,,,,1671.421630900004,1671.4324968,1671.4324968,1671.4324968,1671.4324968,1671.4324968,1671.4324968,1683.986684899981,['r'],0,[12.547281600011047],[None],1683.9878850999812,1684.0000231000013,1684.0000231000013,1684.0000231000013,1685.9013717999915,5,1.8971616000053473,5,1.8971616000053473,,,,,,sub179_NB,001,2026-02-04_14h03.08.665,recognitionstage,,2025.1.1,60.0030481536079,2026-02-04 14h03.38.624851 +0530,
,,,3,3,0,17,frames\Vid17_BB_T.png,frames\Vid17_L.png,['l'],1,[8.324848000018392],[None],3,2.815621000016108,,,,,0,3,3,16,1685.950782400003,,20,Male,Right handed,Normal,,,,,,,,,,,,,,,,,,,,,,,,,,,,,,,,,,,,,,,,1685.9410414999875,1685.950782400003,1685.950782400003,1685.950782400003,1685.950782400003,1685.950782400003,1685.950782400003,1694.2852258999774,['l'],1,[8.324848000018392],[None],1694.286105999985,1694.3005830000038,1694.3005830000038,1694.3005830000038,1697.1174944999802,3,2.815621000016108,3,2.815621000016108,,,,,,sub179_NB,001,2026-02-04_14h03.08.665,recognitionstage,,2025.1.1,60.0030481536079,2026-02-04 14h03.38.624851 +0530,
,,,4,4,0,28,frames\Vid28_EM_T.png,frames\Vid28_L.png,['r'],1,[3.2915703999751713],[None],5,1.464304799999809,,,,,0,4,4,27,1697.1681603000034,,20,Male,Right handed,Normal,,,,,,,,,,,,,,,,,,,,,,,,,,,,,,,,,,,,,,,,1697.146348899987,1697.1681603000034,1697.1681603000034,1697.1681603000034,1697.1681603000034,1697.1681603000034,1697.1681603000034,1700.4690008999896,['r'],1,[3.2915703999751713],[None],1700.4699583999754,1700.4839269999939,1700.4839269999939,1700.4839269999939,1701.9510186999978,5,1.464304799999809,5,1.464304799999809,,,,,,sub179_NB,001,2026-02-04_14h03.08.665,recognitionstage,,2025.1.1,60.0030481536079,2026-02-04 14h03.38.624851 +0530,
,,,5,5,0,22,frames\Vid22_EM_T.png,frames\Vid22_L.png,['r'],1,[3.8525991999777034],[None],5,1.0323984999849927,,,,,0,5,5,21,1701.9833405999816,,20,Male,Right handed,Normal,,,,,,,,,,,,,,,,,,,,,,,,,,,,,,,,,,,,,,,,1701.977158900001,1701.9833405999816,1701.9833405999816,1701.9833405999816,1701.9833405999816,1701.9833405999816,1701.9833405999816,1705.8515239999979,['r'],1,[3.8525991999777034],[None],1705.852275799989,1705.8670002,1705.8670002,1705.8670002,1706.9016125999915,5,1.0323984999849927,5,1.0323984999849927,,,,,,sub179_NB,001,2026-02-04_14h03.08.665,recognitionstage,,2025.1.1,60.0030481536079,2026-02-04 14h03.38.624851 +0530,
,,,6,6,0,16,frames\Vid16_EM_T.png,frames\Vid16_L.png,['r'],0,[4.452054000023054],[None],5,1.4838992999866605,,,,,0,6,6,15,1706.9675752999901,,20,Male,Right handed,Normal,,,,,,,,,,,,,,,,,,,,,,,,,,,,,,,,,,,,,,,,1706.956258399994,1706.9675752999901,1706.9675752999901,1706.9675752999901,1706.9675752999901,1706.9675752999901,1706.9675752999901,1711.4348832999822,['r'],0,[4.452054000023054],[None],1711.4357191000017,1711.4506647999806,1711.4506647999806,1711.4506647999806,1712.9343640999869,5,1.4838992999866605,5,1.4838992999866605,,,,,,sub179_NB,001,2026-02-04_14h03.08.665,recognitionstage,,2025.1.1,60.0030481536079,2026-02-04 14h03.38.624851 +0530,
,,,7,7,0,34,frames\Vid34_BB_T.png,frames\Vid34_L.png,['r'],1,[7.602265699999407],[None],3,2.94757750001736,,,,,0,7,7,33,1712.9694395999832,,20,Male,Right handed,Normal,,,,,,,,,,,,,,,,,,,,,,,,,,,,,,,,,,,,,,,,1712.9595245999808,1712.9694395999832,1712.9694395999832,1712.9694395999832,1712.9694395999832,1712.9694395999832,1712.9694395999832,1720.58602409999,['r'],1,[7.602265699999407],[None],1720.586899499991,1720.6001314999885,1720.6001314999885,1720.6001314999885,1723.5517037999816,3,2.94757750001736,3,2.94757750001736,,,,,,sub179_NB,001,2026-02-04_14h03.08.665,recognitionstage,,2025.1.1,60.0030481536079,2026-02-04 14h03.38.624851 +0530,
,,,8,8,0,36,frames\Vid36_BB_T.png,frames\Vid36_L.png,['l'],1,[6.3555028999981005],[None],5,1.4845917000202462,,,,,0,8,8,35,1723.6001650999824,,20,Male,Right handed,Normal,,,,,,,,,,,,,,,,,,,,,,,,,,,,,,,,,,,,,,,,1723.57895559998,1723.6001650999824,1723.6001650999824,1723.6001650999824,1723.6001650999824,1723.6001650999824,1723.6001650999824,1729.9673761999875,['l'],1,[6.3555028999981005],[None],1729.967953799991,1729.9836273999827,1729.9836273999827,1729.9836273999827,1731.467513599986,5,1.4845917000202462,5,1.4845917000202462,,,,,,sub179_NB,001,2026-02-04_14h03.08.665,recognitionstage,,2025.1.1,60.0030481536079,2026-02-04 14h03.38.624851 +0530,
,,,9,9,0,35,frames\Vid35_EM_T.png,frames\Vid35_L.png,['r'],1,[6.727669699990656],[None],4,1.3657713000138756,,,,,0,9,9,34,1731.5001778999867,,20,Male,Right handed,Normal,,,,,,,,,,,,,,,,,,,,,,,,,,,,,,,,,,,,,,,,1731.4904745999957,1731.5001778999867,1731.5001778999867,1731.5001778999867,1731.5001778999867,1731.5001778999867,1731.5001778999867,1738.2354349999805,['r'],1,[6.727669699990656],[None],1738.2363078999915,1738.2505244999775,1738.2505244999775,1738.2505244999775,1739.6177740999847,4,1.3657713000138756,4,1.3657713000138756,,,,,,sub179_NB,001,2026-02-04_14h03.08.665,recognitionstage,,2025.1.1,60.0030481536079,2026-02-04 14h03.38.624851 +0530,
,,,10,10,0,29,frames\Vid29_BB_T.png,frames\Vid29_L.png,['l'],1,[4.217605199984973],[None],5,1.1978277000016533,,,,,0,10,10,28,1739.650102899992,,20,Male,Right handed,Normal,,,,,,,,,,,,,,,,,,,,,,,,,,,,,,,,,,,,,,,,1739.642971399997,1739.650102899992,1739.650102899992,1739.650102899992,1739.650102899992,1739.650102899992,1739.650102899992,1743.8692091999983,['l'],1,[4.217605199984973],[None],1743.8700600999873,1743.8836534000002,1743.8836534000002,1743.8836534000002,1745.0840847999789,5,1.1978277000016533,5,1.1978277000016533,,,,,,sub179_NB,001,2026-02-04_14h03.08.665,recognitionstage,,2025.1.1,60.0030481536079,2026-02-04 14h03.38.624851 +0530,
,,,11,11,0,40,frames\Vid40_EM_T.png,frames\Vid40_L.png,['r'],1,[2.9429935999796726],[None],5,1.1474983999796677,,,,,0,11,11,39,1745.1167267999845,,20,Male,Right handed,Normal,,,,,,,,,,,,,,,,,,,,,,,,,,,,,,,,,,,,,,,,1745.1059644999914,1745.1167267999845,1745.1167267999845,1745.1167267999845,1745.1167267999845,1745.1167267999845,1745.1167267999845,1748.070098199998,['r'],1,[2.9429935999796726],[None],1748.0710778999783,1748.083427399979,1748.083427399979,1748.083427399979,1749.2352356999763,5,1.1474983999796677,5,1.1474983999796677,,,,,,sub179_NB,001,2026-02-04_14h03.08.665,recognitionstage,,2025.1.1,60.0030481536079,2026-02-04 14h03.38.624851 +0530,
,,,12,12,0,18,frames\Vid18_EM_T.png,frames\Vid18_L.png,['l'],1,[12.937215799989644],[None],4,1.4788463000149932,,,,,0,12,12,17,1749.266550100001,,20,Male,Right handed,Normal,,,,,,,,,,,,,,,,,,,,,,,,,,,,,,,,,,,,,,,,1749.2604376999952,1749.266550100001,1749.266550100001,1749.266550100001,1749.266550100001,1749.266550100001,1749.266550100001,1762.2207071000012,['l'],1,[12.937215799989644],[None],1762.2226660999877,1762.2483376000018,1762.2483376000018,1762.2483376000018,1763.7180524999858,4,1.4788463000149932,4,1.4788463000149932,,,,,,sub179_NB,001,2026-02-04_14h03.08.665,recognitionstage,,2025.1.1,60.0030481536079,2026-02-04 14h03.38.624851 +0530,
,,,13,13,0,31,frames\Vid31_EM_T.png,frames\Vid31_L.png,['r'],1,[6.933375399996294],[None],3,0.997784099978162,,,,,0,13,13,30,1763.7503038999857,,20,Male,Right handed,Normal,,,,,,,,,,,,,,,,,,,,,,,,,,,,,,,,,,,,,,,,1763.743235699978,1763.7503038999857,1763.7503038999857,1763.7503038999857,1763.7503038999857,1763.7503038999857,1763.7503038999857,1770.6857352999796,['r'],1,[6.933375399996294],[None],1770.686542999989,1770.7004049999814,1770.7004049999814,1770.7004049999814,1771.7017245999887,3,0.997784099978162,3,0.997784099978162,,,,,,sub179_NB,001,2026-02-04_14h03.08.665,recognitionstage,,2025.1.1,60.0030481536079,2026-02-04 14h03.38.624851 +0530,
,,,14,14,0,32,frames\Vid32_EM_T.png,frames\Vid32_L.png,['l'],1,[5.230368399992585],[None],5,1.449102500017034,,,,,0,14,14,31,1771.7333272999967,,20,Male,Right handed,Normal,,,,,,,,,,,,,,,,,,,,,,,,,,,,,,,,,,,,,,,,1771.7276184999791,1771.7333272999967,1771.7333272999967,1771.7333272999967,1771.7333272999967,1771.7333272999967,1771.7333272999967,1776.9687497999985,['l'],1,[5.230368399992585],[None],1776.9700574000017,1776.983768599981,1776.983768599981,1776.983768599981,1778.4343340999912,5,1.449102500017034,5,1.449102500017034,,,,,,sub179_NB,001,2026-02-04_14h03.08.665,recognitionstage,,2025.1.1,60.0030481536079,2026-02-04 14h03.38.624851 +0530,
,,,15,15,0,5,frames\Vid5_EM_T.png,frames\Vid5_L.png,['l'],1,[6.151817099977052],[None],3,0.9981804999988526,,,,,0,15,15,4,1778.4837452999782,,20,Male,Right handed,Normal,,,,,,,,,,,,,,,,,,,,,,,,,,,,,,,,,,,,,,,,1778.4777187999862,1778.4837452999782,1778.4837452999782,1778.4837452999782,1778.4837452999782,1778.4837452999782,1778.4837452999782,1784.6520941999916,['l'],1,[6.151817099977052],[None],1784.6532348999754,1784.6670138999762,1784.6670138999762,1784.6670138999762,1785.6683202999993,3,0.9981804999988526,3,0.9981804999988526,,,,,,sub179_NB,001,2026-02-04_14h03.08.665,recognitionstage,,2025.1.1,60.0030481536079,2026-02-04 14h03.38.624851 +0530,
,,,16,16,0,11,frames\Vid11_EM_T.png,frames\Vid11_L.png,['r'],1,[5.259335400012787],[None],5,1.165223199990578,,,,,0,16,16,10,1785.7524127999786,,20,Male,Right handed,Normal,,,,,,,,,,,,,,,,,,,,,,,,,,,,,,,,,,,,,,,,1785.729531799996,1785.7524127999786,1785.7524127999786,1785.7524127999786,1785.7524127999786,1785.7524127999786,1785.7524127999786,1791.0186625999922,['r'],1,[5.259335400012787],[None],1791.0194993999903,1791.033938299981,1791.033938299981,1791.033938299981,1792.2016484999913,5,1.165223199990578,5,1.165223199990578,,,,,,sub179_NB,001,2026-02-04_14h03.08.665,recognitionstage,,2025.1.1,60.0030481536079,2026-02-04 14h03.38.624851 +0530,
,,,17,17,0,37,frames\Vid37_BB_T.png,frames\Vid37_L.png,['r'],1,[4.814990399987437],[None],5,1.2647876999981236,,,,,0,17,17,36,1792.2526002999803,,20,Male,Right handed,Normal,,,,,,,,,,,,,,,,,,,,,,,,,,,,,,,,,,,,,,,,1792.2283862999757,1792.2526002999803,1792.2526002999803,1792.2526002999803,1792.2526002999803,1792.2526002999803,1792.2526002999803,1797.0697057999787,['r'],1,[4.814990399987437],[None],1797.0705621999805,1797.0835315999866,1797.0835315999866,1797.0835315999866,1798.350873999996,5,1.2647876999981236,5,1.2647876999981236,,,,,,sub179_NB,001,2026-02-04_14h03.08.665,recognitionstage,,2025.1.1,60.0030481536079,2026-02-04 14h03.38.624851 +0530,
,,,18,18,0,25,frames\Vid25_BB_T.png,frames\Vid25_L.png,['r'],1,[10.012203299993416],[None],5,4.86305519999587,,,,,0,18,18,24,1798.383683699998,,20,Male,Right handed,Normal,,,,,,,,,,,,,,,,,,,,,,,,,,,,,,,,,,,,,,,,1798.3761056999792,1798.383683699998,1798.383683699998,1798.383683699998,1798.383683699998,1798.383683699998,1798.383683699998,1808.403800799977,['r'],1,[10.012203299993416],[None],1808.4051419000025,1808.4167527999962,1808.4167527999962,1808.4167527999962,1813.2842654999986,5,4.86305519999587,5,4.86305519999587,,,,,,sub179_NB,001,2026-02-04_14h03.08.665,recognitionstage,,2025.1.1,60.0030481536079,2026-02-04 14h03.38.624851 +0530,
,,,19,19,0,27,frames\Vid27_BB_T.png,frames\Vid27_L.png,['r'],1,[6.5188893000013195],[None],3,0.8309918000013568,,,,,0,19,19,26,1813.3168206999835,,20,Male,Right handed,Normal,,,,,,,,,,,,,,,,,,,,,,,,,,,,,,,,,,,,,,,,1813.3082336999942,1813.3168206999835,1813.3168206999835,1813.3168206999835,1813.3168206999835,1813.3168206999835,1813.3168206999835,1819.836513599992,['r'],1,[6.5188893000013195],[None],1819.8376104999916,1819.8502540999907,1819.8502540999907,1819.8502540999907,1820.6841798999812,3,0.8309918000013568,3,0.8309918000013568,,,,,,sub179_NB,001,2026-02-04_14h03.08.665,recognitionstage,,2025.1.1,60.0030481536079,2026-02-04 14h03.38.624851 +0530,
,,,20,20,0,14,frames\Vid14_BB_T.png,frames\Vid14_L.png,['r'],0,[8.636459199973615],[None],2,1.5151110999868251,,,,,0,20,20,13,1820.7671467000037,,20,Male,Right handed,Normal,,,,,,,,,,,,,,,,,,,,,,,,,,,,,,,,,,,,,,,,1820.746990499989,1820.7671467000037,1820.7671467000037,1820.7671467000037,1820.7671467000037,1820.7671467000037,1820.7671467000037,1829.4184246999794,['r'],0,[8.636459199973615],[None],1829.4191032999952,1829.4333418000024,1829.4333418000024,1829.4333418000024,1830.9510928999807,2,1.5151110999868251,2,1.5151110999868251,,,,,,sub179_NB,001,2026-02-04_14h03.08.665,recognitionstage,,2025.1.1,60.0030481536079,2026-02-04 14h03.38.624851 +0530,
,,,21,21,0,21,frames\Vid21_BB_T.png,frames\Vid21_L.png,['l'],0,[7.889693700009957],[None],4,1.1159541999804787,,,,,0,21,21,20,1830.9858793999883,,20,Male,Right handed,Normal,,,,,,,,,,,,,,,,,,,,,,,,,,,,,,,,,,,,,,,,1830.9774213999917,1830.9858793999883,1830.9858793999883,1830.9858793999883,1830.9858793999883,1830.9858793999883,1830.9858793999883,1838.8846265999891,['l'],0,[7.889693700009957],[None],1838.8853824999824,1838.9004212,1838.9004212,1838.9004212,1840.0171905999887,4,1.1159541999804787,4,1.1159541999804787,,,,,,sub179_NB,001,2026-02-04_14h03.08.665,recognitionstage,,2025.1.1,60.0030481536079,2026-02-04 14h03.38.624851 +0530,
,,,22,22,0,7,frames\Vid7_EM_T.png,frames\Vid7_L.png,['r'],1,[7.702793300006306],[None],5,1.4488712000020314,,,,,0,22,22,6,1840.100791099976,,20,Male,Right handed,Normal,,,,,,,,,,,,,,,,,,,,,,,,,,,,,,,,,,,,,,,,1840.0915670999966,1840.100791099976,1840.100791099976,1840.100791099976,1840.100791099976,1840.100791099976,1840.100791099976,1847.8186472999805,['r'],1,[7.702793300006306],[None],1847.8193163999822,1847.8332954999933,1847.8332954999933,1847.8332954999933,1849.2847371999815,5,1.4488712000020314,5,1.4488712000020314,,,,,,sub179_NB,001,2026-02-04_14h03.08.665,recognitionstage,,2025.1.1,60.0030481536079,2026-02-04 14h03.38.624851 +0530,
,,,23,23,0,30,frames\Vid30_EM_T.png,frames\Vid30_L.png,['l'],1,[7.372435299999779],[None],4,1.9312468999996781,,,,,0,23,23,29,1849.3192334999912,,20,Male,Right handed,Normal,,,,,,,,,,,,,,,,,,,,,,,,,,,,,,,,,,,,,,,,1849.3076002000016,1849.3192334999912,1849.3192334999912,1849.3192334999912,1849.3192334999912,1849.3192334999912,1849.3192334999912,1856.7023054999881,['l'],1,[7.372435299999779],[None],1856.7034073999966,1856.7166039999865,1856.7166039999865,1856.7166039999865,1858.6509394999885,4,1.9312468999996781,4,1.9312468999996781,,,,,,sub179_NB,001,2026-02-04_14h03.08.665,recognitionstage,,2025.1.1,60.0030481536079,2026-02-04 14h03.38.624851 +0530,
,,,24,24,0,15,frames\Vid15_BB_T.png,frames\Vid15_L.png,['r'],1,[3.4617175000021234],[None],5,1.1490873000002466,,,,,0,24,24,14,1858.7340443999856,,20,Male,Right handed,Normal,,,,,,,,,,,,,,,,,,,,,,,,,,,,,,,,,,,,,,,,1858.7113596999843,1858.7340443999856,1858.7340443999856,1858.7340443999856,1858.7340443999856,1858.7340443999856,1858.7340443999856,1862.2015665999788,['r'],1,[3.4617175000021234],[None],1862.202368600003,1862.2169446999906,1862.2169446999906,1862.2169446999906,1863.3676207999815,5,1.1490873000002466,5,1.1490873000002466,,,,,,sub179_NB,001,2026-02-04_14h03.08.665,recognitionstage,,2025.1.1,60.0030481536079,2026-02-04 14h03.38.624851 +0530,
,,,25,25,0,1,frames\Vid1_EM_T.png,frames\Vid1_L.png,['r'],1,[8.014229199994588],[None],5,1.2316501000022981,,,,,0,25,25,0,1863.4534667999833,,20,Male,Right handed,Normal,,,,,,,,,,,,,,,,,,,,,,,,,,,,,,,,,,,,,,,,1863.4280681999808,1863.4534667999833,1863.4534667999833,1863.4534667999833,1863.4534667999833,1863.4534667999833,1863.4534667999833,1871.4690405000001,['r'],1,[8.014229199994588],[None],1871.4698516999779,1871.4833986999874,1871.4833986999874,1871.4833986999874,1872.717622999975,5,1.2316501000022981,5,1.2316501000022981,,,,,,sub179_NB,001,2026-02-04_14h03.08.665,recognitionstage,,2025.1.1,60.0030481536079,2026-02-04 14h03.38.624851 +0530,
,,,26,26,0,23,frames\Vid23_EM_T.png,frames\Vid23_L.png,['r'],0,[4.449855999991996],[None],4,0.8487258999957703,,,,,0,26,26,22,1872.7698893999914,,20,Male,Right handed,Normal,,,,,,,,,,,,,,,,,,,,,,,,,,,,,,,,,,,,,,,,1872.7479620999948,1872.7698893999914,1872.7698893999914,1872.7698893999914,1872.7698893999914,1872.7698893999914,1872.7698893999914,1877.2352108999912,['r'],0,[4.449855999991996],[None],1877.236432399979,1877.2503653999884,1877.2503653999884,1877.2503653999884,1878.101129399991,4,0.8487258999957703,4,0.8487258999957703,,,,,,sub179_NB,001,2026-02-04_14h03.08.665,recognitionstage,,2025.1.1,60.0030481536079,2026-02-04 14h03.38.624851 +0530,
,,,27,27,0,3,frames\Vid3_BB_T.png,frames\Vid3_L.png,['l'],1,[6.972265399992466],[None],5,1.264777399977902,,,,,0,27,27,2,1878.1673362999863,,20,Male,Right handed,Normal,,,,,,,,,,,,,,,,,,,,,,,,,,,,,,,,,,,,,,,,1878.1535776999954,1878.1673362999863,1878.1673362999863,1878.1673362999863,1878.1673362999863,1878.1673362999863,1878.1673362999863,1885.1523298999819,['l'],1,[6.972265399992466],[None],1885.1531593999825,1885.1667580999783,1885.1667580999783,1885.1667580999783,1886.4340620999865,5,1.264777399977902,5,1.264777399977902,,,,,,sub179_NB,001,2026-02-04_14h03.08.665,recognitionstage,,2025.1.1,60.0030481536079,2026-02-04 14h03.38.624851 +0530,
,,,28,28,0,8,frames\Vid8_BB_T.png,frames\Vid8_L.png,['l'],1,[4.572378999990178],[None],5,1.5470250000071246,,,,,0,28,28,7,1886.503314499976,,20,Male,Right handed,Normal,,,,,,,,,,,,,,,,,,,,,,,,,,,,,,,,,,,,,,,,1886.4887485999789,1886.503314499976,1886.503314499976,1886.503314499976,1886.503314499976,1886.503314499976,1886.503314499976,1891.086860899988,['l'],1,[4.572378999990178],[None],1891.0879801999836,1891.1000407999963,1891.1000407999963,1891.1000407999963,1892.65147479999,5,1.5470250000071246,5,1.5470250000071246,,,,,,sub179_NB,001,2026-02-04_14h03.08.665,recognitionstage,,2025.1.1,60.0030481536079,2026-02-04 14h03.38.624851 +0530,
,,,29,29,0,6,frames\Vid6_BB_T.png,frames\Vid6_L.png,['l'],1,[9.066871700022602],[None],3,1.3144140999938827,,,,,0,29,29,5,1892.7203947999806,,20,Male,Right handed,Normal,,,,,,,,,,,,,,,,,,,,,,,,,,,,,,,,,,,,,,,,1892.7076545000018,1892.7203947999806,1892.7203947999806,1892.7203947999806,1892.7203947999806,1892.7203947999806,1892.7203947999806,1901.8023117999837,['l'],1,[9.066871700022602],[None],1901.8032082999998,1901.816686199978,1901.816686199978,1901.816686199978,1903.1344032999768,3,1.3144140999938827,3,1.3144140999938827,,,,,,sub179_NB,001,2026-02-04_14h03.08.665,recognitionstage,,2025.1.1,60.0030481536079,2026-02-04 14h03.38.624851 +0530,
,,,30,30,0,20,frames\Vid20_EM_T.png,frames\Vid20_L.png,['r'],1,[2.2496614000119735],[None],5,1.0979463999974541,,,,,0,30,30,19,1903.1699673999974,,20,Male,Right handed,Normal,,,,,,,,,,,,,,,,,,,,,,,,,,,,,,,,,,,,,,,,1903.1533860999916,1903.1699673999974,1903.1699673999974,1903.1699673999974,1903.1699673999974,1903.1699673999974,1903.1699673999974,1905.4354284,['r'],1,[2.2496614000119735],[None],1905.4362438999815,1905.4504842000024,1905.4504842000024,1905.4504842000024,1906.5511119999865,5,1.0979463999974541,5,1.0979463999974541,,,,,,sub179_NB,001,2026-02-04_14h03.08.665,recognitionstage,,2025.1.1,60.0030481536079,2026-02-04 14h03.38.624851 +0530,
,,,31,31,0,12,frames\Vid12_EM_T.png,frames\Vid12_L.png,['r'],0,[7.706205800001044],[None],4,1.031434900010936,,,,,0,31,31,11,1906.6174732999934,,20,Male,Right handed,Normal,,,,,,,,,,,,,,,,,,,,,,,,,,,,,,,,,,,,,,,,1906.6074752999994,1906.6174732999934,1906.6174732999934,1906.6174732999934,1906.6174732999934,1906.6174732999934,1906.6174732999934,1914.3358004999754,['r'],0,[7.706205800001044],[None],1914.3366393999895,1914.3499156000034,1914.3499156000034,1914.3499156000034,1915.3845033999823,4,1.031434900010936,4,1.031434900010936,,,,,,sub179_NB,001,2026-02-04_14h03.08.665,recognitionstage,,2025.1.1,60.0030481536079,2026-02-04 14h03.38.624851 +0530,
,,,32,32,0,33,frames\Vid33_BB_T.png,frames\Vid33_L.png,['l'],0,[4.49564609999652],[None],4,0.8322540000081062,,,,,0,32,32,32,1915.4198515999888,,20,Male,Right handed,Normal,,,,,,,,,,,,,,,,,,,,,,,,,,,,,,,,,,,,,,,,1915.4106167999853,1915.4198515999888,1915.4198515999888,1915.4198515999888,1915.4198515999888,1915.4198515999888,1915.4198515999888,1919.9182336999802,['l'],0,[4.49564609999652],[None],1919.9192281999858,1919.9336801999889,1919.9336801999889,1919.9336801999889,1920.7682625000016,4,0.8322540000081062,4,0.8322540000081062,,,,,,sub179_NB,001,2026-02-04_14h03.08.665,recognitionstage,,2025.1.1,60.0030481536079,2026-02-04 14h03.38.624851 +0530,
,,,33,33,0,4,frames\Vid4_EM_T.png,frames\Vid4_L.png,['l'],1,[7.944802000012714],[None],5,1.8326815000036731,,,,,0,33,33,3,1920.850932100002,,20,Male,Right handed,Normal,,,,,,,,,,,,,,,,,,,,,,,,,,,,,,,,,,,,,,,,1920.8297108999977,1920.850932100002,1920.850932100002,1920.850932100002,1920.850932100002,1920.850932100002,1920.850932100002,1928.8015977999894,['l'],1,[7.944802000012714],[None],1928.802218500001,1928.816664699989,1928.816664699989,1928.816664699989,1930.6510467999906,5,1.8326815000036731,5,1.8326815000036731,,,,,,sub179_NB,001,2026-02-04_14h03.08.665,recognitionstage,,2025.1.1,60.0030481536079,2026-02-04 14h03.38.624851 +0530,
,,,34,34,0,2,frames\Vid2_BB_T.png,frames\Vid2_L.png,['r'],1,[8.954602499987232],[None],3,0.9482624999945983,,,,,0,34,34,1,1930.7371989999956,,20,Male,Right handed,Normal,,,,,,,,,,,,,,,,,,,,,,,,,,,,,,,,,,,,,,,,1930.7252273999911,1930.7371989999956,1930.7371989999956,1930.7371989999956,1930.7371989999956,1930.7371989999956,1930.7371989999956,1939.7031161999912,['r'],1,[8.954602499987232],[None],1939.7043920999859,1939.7316925999767,1939.7316925999767,1939.7316925999767,1940.667401099985,3,0.9482624999945983,3,0.9482624999945983,,,,,,sub179_NB,001,2026-02-04_14h03.08.665,recognitionstage,,2025.1.1,60.0030481536079,2026-02-04 14h03.38.624851 +0530,
,,,35,35,0,24,frames\Vid24_BB_T.png,frames\Vid24_L.png,['r'],1,[9.94049310000264],[None],5,0.7987615000165533,,,,,0,35,35,23,1940.7031451999792,,20,Male,Right handed,Normal,,,,,,,,,,,,,,,,,,,,,,,,,,,,,,,,,,,,,,,,1940.6936334999918,1940.7031451999792,1940.7031451999792,1940.7031451999792,1940.7031451999792,1940.7031451999792,1940.7031451999792,1950.6520478999882,['r'],1,[9.94049310000264],[None],1950.6528309999849,1950.666509200004,1950.666509200004,1950.666509200004,1951.4676944999956,5,0.7987615000165533,5,0.7987615000165533,,,,,,sub179_NB,001,2026-02-04_14h03.08.665,recognitionstage,,2025.1.1,60.0030481536079,2026-02-04 14h03.38.624851 +0530,
,,,36,36,0,10,frames\Vid10_BB_T.png,frames\Vid10_L.png,['r'],1,[4.1405102999997325],[None],2,1.4985647999856155,,,,,0,36,36,9,1951.5510763999773,,20,Male,Right handed,Normal,,,,,,,,,,,,,,,,,,,,,,,,,,,,,,,,,,,,,,,,1951.528502000001,1951.5510763999773,1951.5510763999773,1951.5510763999773,1951.5510763999773,1951.5510763999773,1951.5510763999773,1955.7022617000039,['r'],1,[4.1405102999997325],[None],1955.7030891999893,1955.7168305999949,1955.7168305999949,1955.7168305999949,1957.2174021999817,2,1.4985647999856155,2,1.4985647999856155,,,,,,sub179_NB,001,2026-02-04_14h03.08.665,recognitionstage,,2025.1.1,60.0030481536079,2026-02-04 14h03.38.624851 +0530,
,,,37,37,0,38,frames\Vid38_EM_T.png,frames\Vid38_L.png,['l'],1,[9.19845820000046],[None],3,1.2647111000260338,,,,,0,37,37,37,1957.2532408999978,,20,Male,Right handed,Normal,,,,,,,,,,,,,,,,,,,,,,,,,,,,,,,,,,,,,,,,1957.2418300999852,1957.2532408999978,1957.2532408999978,1957.2532408999978,1957.2532408999978,1957.2532408999978,1957.2532408999978,1966.4522515999852,['l'],1,[9.19845820000046],[None],1966.4530694999848,1966.467025799997,1966.467025799997,1966.467025799997,1967.7341761999996,3,1.2647111000260338,3,1.2647111000260338,,,,,,sub179_NB,001,2026-02-04_14h03.08.665,recognitionstage,,2025.1.1,60.0030481536079,2026-02-04 14h03.38.624851 +0530,
,,,38,38,0,9,frames\Vid9_EM_T.png,frames\Vid9_L.png,['r'],1,[4.803014900011476],[None],3,1.2654846000077669,,,,,0,38,38,8,1967.8005234999873,,20,Male,Right handed,Normal,,,,,,,,,,,,,,,,,,,,,,,,,,,,,,,,,,,,,,,,1967.7851400999934,1967.8005234999873,1967.8005234999873,1967.8005234999873,1967.8005234999873,1967.8005234999873,1967.8005234999873,1972.6186797999835,['r'],1,[4.803014900011476],[None],1972.6193689999927,1972.6334450999857,1972.6334450999857,1972.6334450999857,1973.9006427999993,3,1.2654846000077669,3,1.2654846000077669,,,,,,sub179_NB,001,2026-02-04_14h03.08.665,recognitionstage,,2025.1.1,60.0030481536079,2026-02-04 14h03.38.624851 +0530,
,,,39,39,0,26,frames\Vid26_EM_T.png,frames\Vid26_L.png,['l'],1,[6.010878099972615],[None],5,0.8978546000143979,,,,,0,39,39,25,1973.9527812000015,,20,Male,Right handed,Normal,,,,,,,,,,,,,,,,,,,,,,,,,,,,,,,,,,,,,,,,1973.9284996999777,1973.9527812000015,1973.9527812000015,1973.9527812000015,1973.9527812000015,1973.9527812000015,1973.9527812000015,1979.9695619999839,['l'],1,[6.010878099972615],[None],1979.9705378999934,1979.9831470999925,1979.9831470999925,1979.9831470999925,1980.8840762999898,5,0.8978546000143979,5,0.8978546000143979,,,,,,sub179_NB,001,2026-02-04_14h03.08.665,recognitionstage,,2025.1.1,60.0030481536079,2026-02-04 14h03.38.624851 +0530,
,,,,,,,,,,,,,,,,,,,,,,,,,20,Male,Right handed,Normal,,,,,,,,,,,,,,,,,,,,,,,,,,,,,,,,,,,,,,,,,,,,,,,,,,,,,,,,,,,,,1980.8841758999915,1980.901160599984,1980.901160599984,2000.884291399998,None,sub179_NB,001,2026-02-04_14h03.08.665,recognitionstage,,2025.1.1,60.0030481536079,2026-02-04 14h03.38.624851 +0530,
