path,duration,is_repeat,thisN,thisTrialN,thisRepN,movie_id,target_img,lure_img,resp.keys,resp.corr,resp.rt,resp.duration,conf_radio.response,conf_radio.rt,movie.thisRepN,movie.thisTrialN,movie.thisN,movie.thisIndex,recogloop.thisRepN,recogloop.thisTrialN,recogloop.thisN,recogloop.thisIndex,thisRow.t,notes,age,gender,handedness,vision,caffeine_2h,alcohol_smoke_12h,demographics.started,demographics.stopped,Instructions.started,text1.started,key_resp.started,Instructions.stopped,key_resp.keys,key_resp.rt,key_resp.duration,instruction_2.started,text2.started,key_resp_2.started,instruction_2.stopped,key_resp_2.keys,key_resp_2.rt,key_resp_2.duration,Videos.started,movie_2.started,vigilance_resp.started,movie_2.stopped,Videos.stopped,movie.vigilance_resp.keys,vigilance_pressed,vigilance_correct,ISI.started,text.started,text.stopped,ISI.stopped,movie.vigilance_resp.rt,movie.vigilance_resp.duration,recognition.started,text_4.started,key_resp_3.started,recognition.stopped,key_resp_3.keys,key_resp_3.rt,key_resp_3.duration,recognition_task.started,leftimage.started,rightimage.started,resp.started,frames_question.started,right_label.started,left_label.started,recognition_task.stopped,recogloop.resp.keys,recogloop.resp.corr,recogloop.resp.rt,recogloop.resp.duration,confidence.started,conf_text.started,conf_radio.started,conf_label.started,confidence.stopped,recogloop.conf_radio.response,recogloop.conf_radio.rt,confidence,confidence_rt,thank_you.started,text_6.started,key_resp_4.started,thank_you.stopped,key_resp_4.keys,key_resp_4.rt,key_resp_4.duration,participant,session,date,expName,expVersion,psychopyVersion,frameRate,expStart,...105
,,,,,,,,,,,,,,,,,,,,,,,,,27,Male,Right handed,Normal,Caffeine consumed in last 2 hours?,Alcohol or smoking in last 12 hours?,0.01252849999582395,0.054021299991291016,,,,,,,,,,,,,,,,,,,,,,,,,,,,,,,,,,,,,,,,,,,,,,,,,,,,,,,,,,,,,,,,sub149_NB,001,2026-02-03_11h41.50.843,recognitionstage,,2025.1.1,59.98814634280907,2026-02-03 11h42.38.087277 +0530,
,,,,,,,,,,,,,,,,,,,,,,,,,27,Male,Right handed,Normal,,,,,0.05405229999450967,0.06261280001490377,0.06261280001490377,9.38391999999294,space,9.304964500013739,None,,,,,,,,,,,,,,,,,,,,,,,,,,,,,,,,,,,,,,,,,,,,,,,,,,,,,,,,,sub149_NB,001,2026-02-03_11h41.50.843,recognitionstage,,2025.1.1,59.98814634280907,2026-02-03 11h42.38.087277 +0530,
,,,,,,,,,,,,,,,,,,,,,,,,,27,Male,Right handed,Normal,,,,,,,,,,,,9.383970199996838,9.39931219999562,9.39931219999562,21.283851000014693,space,11.880454300000565,None,,,,,,,,,,,,,,,,,,,,,,,,,,,,,,,,,,,,,,,,,,,,,,,,,,sub149_NB,001,2026-02-03_11h41.50.843,recognitionstage,,2025.1.1,59.98814634280907,2026-02-03 11h42.38.087277 +0530,
Trimmed_videos/natural_24.mp4,25,0,44,44,0,,,,,,,,,,0,44,44,26,,,,,1513.264563100005,,27,Male,Right handed,Normal,,,,,,,,,,,,,,,,,,,1513.2231991000008,1513.264563100005,1513.264563100005,1539.3466266999894,1539.1933122999908,None,0,1,1539.3293694999884,1539.3466266999894,1475.663925300003,1541.832792400004,0.6719834000105038,None,1541.8328813000116,1541.8485377999896,1541.8485377999896,1576.9005572999886,space,35.04675050001242,None,,,,,,,,,,,,,,,,,,,,,,,,,,,,,sub149_NB,001,2026-02-03_11h41.50.843,recognitionstage,,2025.1.1,59.98814634280907,2026-02-03 11h42.38.087277 +0530,
,,,0,0,0,7,frames\Vid7_EM_T.png,frames\Vid7_L.png,['l'],1,[9.13854220000212],[None],4,13.365281400008826,,,,,0,0,0,6,1576.9965342000069,,27,Male,Right handed,Normal,,,,,,,,,,,,,,,,,,,,,,,,,,,,,,,,,,,,,,,,1576.9782517999993,1576.9965342000069,1576.9965342000069,1576.9965342000069,1576.9965342000069,1576.9965342000069,1576.9965342000069,1586.149207600014,['l'],1,[9.13854220000212],[None],1586.1501075999986,1586.1637495000032,1586.1637495000032,1586.1637495000032,1599.531750299997,4,13.365281400008826,4,13.365281400008826,,,,,,,,sub149_NB,001,2026-02-03_11h41.50.843,recognitionstage,,2025.1.1,59.98814634280907,2026-02-03 11h42.38.087277 +0530,
,,,1,1,0,24,frames\Vid24_BB_T.png,frames\Vid24_L.png,['r'],0,[4.28281559998868],[None],4,2.01331310000387,,,,,0,1,1,23,1599.5962288000155,,27,Male,Right handed,Normal,,,,,,,,,,,,,,,,,,,,,,,,,,,,,,,,,,,,,,,,1599.5790122000035,1599.5962288000155,1599.5962288000155,1599.5962288000155,1599.5962288000155,1599.5962288000155,1599.5962288000155,1603.8837639999983,['r'],0,[4.28281559998868],[None],1603.8848022999882,1603.8971526999958,1603.8971526999958,1603.8971526999958,1605.9149051000131,4,2.01331310000387,4,2.01331310000387,,,,,,,,sub149_NB,001,2026-02-03_11h41.50.843,recognitionstage,,2025.1.1,59.98814634280907,2026-02-03 11h42.38.087277 +0530,
,,,2,2,0,34,frames\Vid34_BB_T.png,frames\Vid34_L.png,['r'],0,[0.27555419999407604],[None],3,3.931281500001205,,,,,0,2,2,33,1605.947442500008,,27,Male,Right handed,Normal,,,,,,,,,,,,,,,,,,,,,,,,,,,,,,,,,,,,,,,,1605.9374917999958,1605.947442500008,1605.947442500008,1605.947442500008,1605.947442500008,1605.947442500008,1605.947442500008,1606.2330353000143,['r'],0,[0.27555419999407604],[None],1606.2340884000005,1606.2470485999947,1606.2470485999947,1606.2470485999947,1610.181620999996,3,3.931281500001205,3,3.931281500001205,,,,,,,,sub149_NB,001,2026-02-03_11h41.50.843,recognitionstage,,2025.1.1,59.98814634280907,2026-02-03 11h42.38.087277 +0530,
,,,3,3,0,8,frames\Vid8_BB_T.png,frames\Vid8_L.png,['l'],0,[4.078987599990796],[None],3,2.2125442999822553,,,,,0,3,3,7,1610.2481445999874,,27,Male,Right handed,Normal,,,,,,,,,,,,,,,,,,,,,,,,,,,,,,,,,,,,,,,,1610.2380227000103,1610.2481445999874,1610.2481445999874,1610.2481445999874,1610.2481445999874,1610.2481445999874,1610.2481445999874,1614.3346434000123,['l'],0,[4.078987599990796],[None],1614.3360687000095,1614.362700400001,1614.362700400001,1614.362700400001,1616.5642891000025,3,2.2125442999822553,3,2.2125442999822553,,,,,,,,sub149_NB,001,2026-02-03_11h41.50.843,recognitionstage,,2025.1.1,59.98814634280907,2026-02-03 11h42.38.087277 +0530,
,,,4,4,0,28,frames\Vid28_EM_T.png,frames\Vid28_L.png,['l'],1,[2.5827344999997877],[None],5,1.2476093000150286,,,,,0,4,4,27,1616.6003490000148,,27,Male,Right handed,Normal,,,,,,,,,,,,,,,,,,,,,,,,,,,,,,,,,,,,,,,,1616.5885499000142,1616.6003490000148,1616.6003490000148,1616.6003490000148,1616.6003490000148,1616.6003490000148,1616.6003490000148,1619.183567,['l'],1,[2.5827344999997877],[None],1619.1845175999915,1619.1973449999932,1619.1973449999932,1619.1973449999932,1620.4487631999946,5,1.2476093000150286,5,1.2476093000150286,,,,,,,,sub149_NB,001,2026-02-03_11h41.50.843,recognitionstage,,2025.1.1,59.98814634280907,2026-02-03 11h42.38.087277 +0530,
,,,5,5,0,25,frames\Vid25_BB_T.png,frames\Vid25_L.png,['l'],1,[3.469751000026008],[None],5,1.5459987000213005,,,,,0,5,5,24,1620.4972387999878,,27,Male,Right handed,Normal,,,,,,,,,,,,,,,,,,,,,,,,,,,,,,,,,,,,,,,,1620.4767979999888,1620.4972387999878,1620.4972387999878,1620.4972387999878,1620.4972387999878,1620.4972387999878,1620.4972387999878,1623.9843171999964,['l'],1,[3.469751000026008],[None],1623.9857563000114,1623.9971425000113,1623.9971425000113,1623.9971425000113,1625.548703700013,5,1.5459987000213005,5,1.5459987000213005,,,,,,,,sub149_NB,001,2026-02-03_11h41.50.843,recognitionstage,,2025.1.1,59.98814634280907,2026-02-03 11h42.38.087277 +0530,
,,,6,6,0,17,frames\Vid17_BB_T.png,frames\Vid17_L.png,['r'],1,[3.249239700002363],[None],5,0.9136171999853104,,,,,0,6,6,16,1625.597778299998,,27,Male,Right handed,Normal,,,,,,,,,,,,,,,,,,,,,,,,,,,,,,,,,,,,,,,,1625.5913774000073,1625.597778299998,1625.597778299998,1625.597778299998,1625.597778299998,1625.597778299998,1625.597778299998,1628.8502033000113,['r'],1,[3.249239700002363],[None],1628.8512929000135,1628.8639622000046,1628.8639622000046,1628.8639622000046,1629.7814996000088,5,0.9136171999853104,5,0.9136171999853104,,,,,,,,sub149_NB,001,2026-02-03_11h41.50.843,recognitionstage,,2025.1.1,59.98814634280907,2026-02-03 11h42.38.087277 +0530,
,,,7,7,0,40,frames\Vid40_EM_T.png,frames\Vid40_L.png,['l'],1,[3.6634614000213332],[None],5,1.215966899995692,,,,,0,7,7,39,1629.8154587000026,,27,Male,Right handed,Normal,,,,,,,,,,,,,,,,,,,,,,,,,,,,,,,,,,,,,,,,1629.8029318999907,1629.8154587000026,1629.8154587000026,1629.8154587000026,1629.8154587000026,1629.8154587000026,1629.8154587000026,1633.4822029999923,['l'],1,[3.6634614000213332],[None],1633.4830882000097,1633.497693799989,1633.497693799989,1633.497693799989,1634.714673200011,5,1.215966899995692,5,1.215966899995692,,,,,,,,sub149_NB,001,2026-02-03_11h41.50.843,recognitionstage,,2025.1.1,59.98814634280907,2026-02-03 11h42.38.087277 +0530,
,,,8,8,0,35,frames\Vid35_EM_T.png,frames\Vid35_L.png,['r'],1,[3.211636099993484],[None],5,1.0478607999975793,,,,,0,8,8,34,1634.747463800013,,27,Male,Right handed,Normal,,,,,,,,,,,,,,,,,,,,,,,,,,,,,,,,,,,,,,,,1634.7376268999942,1634.747463800013,1634.747463800013,1634.747463800013,1634.747463800013,1634.747463800013,1634.747463800013,1637.966674700001,['r'],1,[3.211636099993484],[None],1637.9677007000137,1637.9808699999994,1637.9808699999994,1637.9808699999994,1639.0319960000052,5,1.0478607999975793,5,1.0478607999975793,,,,,,,,sub149_NB,001,2026-02-03_11h41.50.843,recognitionstage,,2025.1.1,59.98814634280907,2026-02-03 11h42.38.087277 +0530,
,,,9,9,0,16,frames\Vid16_EM_T.png,frames\Vid16_L.png,['l'],0,[5.524645500001498],[None],3,2.9485274000035133,,,,,0,9,9,15,1639.0983196999878,,27,Male,Right handed,Normal,,,,,,,,,,,,,,,,,,,,,,,,,,,,,,,,,,,,,,,,1639.0897088999918,1639.0983196999878,1639.0983196999878,1639.0983196999878,1639.0983196999878,1639.0983196999878,1639.0983196999878,1644.6323897000111,['l'],0,[5.524645500001498],[None],1644.6333235999919,1644.6488331000146,1644.6488331000146,1644.6488331000146,1647.5980439000123,3,2.9485274000035133,3,2.9485274000035133,,,,,,,,sub149_NB,001,2026-02-03_11h41.50.843,recognitionstage,,2025.1.1,59.98814634280907,2026-02-03 11h42.38.087277 +0530,
,,,10,10,0,33,frames\Vid33_BB_T.png,frames\Vid33_L.png,['l'],1,[4.477553299977444],[None],4,1.297970699990401,,,,,0,10,10,32,1647.6335102000157,,27,Male,Right handed,Normal,,,,,,,,,,,,,,,,,,,,,,,,,,,,,,,,,,,,,,,,1647.6230359000037,1647.6335102000157,1647.6335102000157,1647.6335102000157,1647.6335102000157,1647.6335102000157,1647.6335102000157,1652.1161041999876,['l'],1,[4.477553299977444],[None],1652.1170789999887,1652.1304220999882,1652.1304220999882,1652.1304220999882,1653.4313426000008,4,1.297970699990401,4,1.297970699990401,,,,,,,,sub149_NB,001,2026-02-03_11h41.50.843,recognitionstage,,2025.1.1,59.98814634280907,2026-02-03 11h42.38.087277 +0530,
,,,11,11,0,21,frames\Vid21_BB_T.png,frames\Vid21_L.png,['r'],1,[4.038261000008788],[None],5,1.1980351000092924,,,,,0,11,11,20,1653.4807180000062,,27,Male,Right handed,Normal,,,,,,,,,,,,,,,,,,,,,,,,,,,,,,,,,,,,,,,,1653.4587459999893,1653.4807180000062,1653.4807180000062,1653.4807180000062,1653.4807180000062,1653.4807180000062,1653.4807180000062,1657.5337825999886,['r'],1,[4.038261000008788],[None],1657.534806999989,1657.5470959999948,1657.5470959999948,1657.5470959999948,1658.7475934000104,5,1.1980351000092924,5,1.1980351000092924,,,,,,,,sub149_NB,001,2026-02-03_11h41.50.843,recognitionstage,,2025.1.1,59.98814634280907,2026-02-03 11h42.38.087277 +0530,
,,,12,12,0,32,frames\Vid32_EM_T.png,frames\Vid32_L.png,['l'],1,[4.818450399994617],[None],5,1.2636115000059363,,,,,0,12,12,31,1658.7806838999968,,27,Male,Right handed,Normal,,,,,,,,,,,,,,,,,,,,,,,,,,,,,,,,,,,,,,,,1658.772819900012,1658.7806838999968,1658.7806838999968,1658.7806838999968,1658.7806838999968,1658.7806838999968,1658.7806838999968,1663.6004424999992,['l'],1,[4.818450399994617],[None],1663.6015584999986,1663.6137357999978,1663.6137357999978,1663.6137357999978,1664.8815493000147,5,1.2636115000059363,5,1.2636115000059363,,,,,,,,sub149_NB,001,2026-02-03_11h41.50.843,recognitionstage,,2025.1.1,59.98814634280907,2026-02-03 11h42.38.087277 +0530,
,,,13,13,0,12,frames\Vid12_EM_T.png,frames\Vid12_L.png,['l'],1,[3.5782433999993373],[None],5,1.4146653000207152,,,,,0,13,13,11,1664.9649183000147,,27,Male,Right handed,Normal,,,,,,,,,,,,,,,,,,,,,,,,,,,,,,,,,,,,,,,,1664.9425196000084,1664.9649183000147,1664.9649183000147,1664.9649183000147,1664.9649183000147,1664.9649183000147,1664.9649183000147,1668.549369699991,['l'],1,[3.5782433999993373],[None],1668.550187099987,1668.563757099997,1668.563757099997,1668.563757099997,1669.9818378000055,5,1.4146653000207152,5,1.4146653000207152,,,,,,,,sub149_NB,001,2026-02-03_11h41.50.843,recognitionstage,,2025.1.1,59.98814634280907,2026-02-03 11h42.38.087277 +0530,
,,,14,14,0,13,frames\Vid13_BB_T.png,frames\Vid13_L.png,['r'],1,[3.051995199988596],[None],5,0.8453643000102602,,,,,0,14,14,12,1670.0512009999948,,27,Male,Right handed,Normal,,,,,,,,,,,,,,,,,,,,,,,,,,,,,,,,,,,,,,,,1670.0337194000022,1670.0512009999948,1670.0512009999948,1670.0512009999948,1670.0512009999948,1670.0512009999948,1670.0512009999948,1673.1175588000042,['r'],1,[3.051995199988596],[None],1673.119266099995,1673.1454589999921,1673.1454589999921,1673.1454589999921,1673.9816106999933,5,0.8453643000102602,5,0.8453643000102602,,,,,,,,sub149_NB,001,2026-02-03_11h41.50.843,recognitionstage,,2025.1.1,59.98814634280907,2026-02-03 11h42.38.087277 +0530,
,,,15,15,0,22,frames\Vid22_EM_T.png,frames\Vid22_L.png,['l'],1,[3.2542184999911115],[None],5,1.0653006999928039,,,,,0,15,15,21,1674.0328875000123,,27,Male,Right handed,Normal,,,,,,,,,,,,,,,,,,,,,,,,,,,,,,,,,,,,,,,,1674.0127438000054,1674.0328875000123,1674.0328875000123,1674.0328875000123,1674.0328875000123,1674.0328875000123,1674.0328875000123,1677.2986538000114,['l'],1,[3.2542184999911115],[None],1677.2994252000062,1677.3142151999928,1677.3142151999928,1677.3142151999928,1678.3819121000124,5,1.0653006999928039,5,1.0653006999928039,,,,,,,,sub149_NB,001,2026-02-03_11h41.50.843,recognitionstage,,2025.1.1,59.98814634280907,2026-02-03 11h42.38.087277 +0530,
,,,16,16,0,31,frames\Vid31_EM_T.png,frames\Vid31_L.png,['l'],1,[3.3289389999990817],[None],5,0.9650201000040397,,,,,0,16,16,30,1678.4142773000058,,27,Male,Right handed,Normal,,,,,,,,,,,,,,,,,,,,,,,,,,,,,,,,,,,,,,,,1678.4037401000096,1678.4142773000058,1678.4142773000058,1678.4142773000058,1678.4142773000058,1678.4142773000058,1678.4142773000058,1681.7488756999956,['l'],1,[3.3289389999990817],[None],1681.7496642000042,1681.7642213999934,1681.7642213999934,1681.7642213999934,1682.731448000006,5,0.9650201000040397,5,0.9650201000040397,,,,,,,,sub149_NB,001,2026-02-03_11h41.50.843,recognitionstage,,2025.1.1,59.98814634280907,2026-02-03 11h42.38.087277 +0530,
,,,17,17,0,30,frames\Vid30_EM_T.png,frames\Vid30_L.png,['r'],1,[3.7794152999995276],[None],4,0.9806323999946471,,,,,0,17,17,29,1682.7636490000004,,27,Male,Right handed,Normal,,,,,,,,,,,,,,,,,,,,,,,,,,,,,,,,,,,,,,,,1682.7540268999874,1682.7636490000004,1682.7636490000004,1682.7636490000004,1682.7636490000004,1682.7636490000004,1682.7636490000004,1686.549530999997,['r'],1,[3.7794152999995276],[None],1686.550685299997,1686.563816400012,1686.563816400012,1686.563816400012,1687.548216700001,4,0.9806323999946471,4,0.9806323999946471,,,,,,,,sub149_NB,001,2026-02-03_11h41.50.843,recognitionstage,,2025.1.1,59.98814634280907,2026-02-03 11h42.38.087277 +0530,
,,,18,18,0,19,frames\Vid19_BB_T.png,frames\Vid19_L.png,['r'],0,[5.026301800011424],[None],3,1.3822064000123646,,,,,0,18,18,18,1687.5806620999938,,27,Male,Right handed,Normal,,,,,,,,,,,,,,,,,,,,,,,,,,,,,,,,,,,,,,,,1687.5723602999933,1687.5806620999938,1687.5806620999938,1687.5806620999938,1687.5806620999938,1687.5806620999938,1687.5806620999938,1692.6152852000087,['r'],0,[5.026301800011424],[None],1692.6161104000057,1692.6309340000153,1692.6309340000153,1692.6309340000153,1694.0143747999973,3,1.3822064000123646,3,1.3822064000123646,,,,,,,,sub149_NB,001,2026-02-03_11h41.50.843,recognitionstage,,2025.1.1,59.98814634280907,2026-02-03 11h42.38.087277 +0530,
,,,19,19,0,18,frames\Vid18_EM_T.png,frames\Vid18_L.png,['l'],1,[4.575330499996198],[None],5,1.3144988999993075,,,,,0,19,19,17,1694.0477230999968,,27,Male,Right handed,Normal,,,,,,,,,,,,,,,,,,,,,,,,,,,,,,,,,,,,,,,,1694.037811999995,1694.0477230999968,1694.0477230999968,1694.0477230999968,1694.0477230999968,1694.0477230999968,1694.0477230999968,1698.6327714000072,['l'],1,[4.575330499996198],[None],1698.6336691000033,1698.6470472000074,1698.6470472000074,1698.6470472000074,1699.9648809999926,5,1.3144988999993075,5,1.3144988999993075,,,,,,,,sub149_NB,001,2026-02-03_11h41.50.843,recognitionstage,,2025.1.1,59.98814634280907,2026-02-03 11h42.38.087277 +0530,
,,,20,20,0,20,frames\Vid20_EM_T.png,frames\Vid20_L.png,['r'],1,[4.537434500001837],[None],4,1.166213999997126,,,,,0,20,20,19,1699.997460100014,,27,Male,Right handed,Normal,,,,,,,,,,,,,,,,,,,,,,,,,,,,,,,,,,,,,,,,1699.988231700001,1699.997460100014,1699.997460100014,1699.997460100014,1699.997460100014,1699.997460100014,1699.997460100014,1704.5490377999959,['r'],1,[4.537434500001837],[None],1704.5497097999905,1704.5637767000007,1704.5637767000007,1704.5637767000007,1705.7313773999922,4,1.166213999997126,4,1.166213999997126,,,,,,,,sub149_NB,001,2026-02-03_11h41.50.843,recognitionstage,,2025.1.1,59.98814634280907,2026-02-03 11h42.38.087277 +0530,
,,,21,21,0,39,frames\Vid39_BB_T.png,frames\Vid39_L.png,['l'],0,[4.923225799982902],[None],3,0.9327943999960553,,,,,0,21,21,38,1705.7636985999998,,27,Male,Right handed,Normal,,,,,,,,,,,,,,,,,,,,,,,,,,,,,,,,,,,,,,,,1705.753854999988,1705.7636985999998,1705.7636985999998,1705.7636985999998,1705.7636985999998,1705.7636985999998,1705.7636985999998,1710.6984609999927,['l'],0,[4.923225799982902],[None],1710.6991838999966,1710.7141547999927,1710.7141547999927,1710.7141547999927,1711.6485831000027,3,0.9327943999960553,3,0.9327943999960553,,,,,,,,sub149_NB,001,2026-02-03_11h41.50.843,recognitionstage,,2025.1.1,59.98814634280907,2026-02-03 11h42.38.087277 +0530,
,,,22,22,0,2,frames\Vid2_BB_T.png,frames\Vid2_L.png,['l'],1,[3.7004769000050146],[None],5,1.3153599000070244,,,,,0,22,22,1,1711.7145653000043,,27,Male,Right handed,Normal,,,,,,,,,,,,,,,,,,,,,,,,,,,,,,,,,,,,,,,,1711.704944099998,1711.7145653000043,1711.7145653000043,1711.7145653000043,1711.7145653000043,1711.7145653000043,1711.7145653000043,1715.4162444999965,['l'],1,[3.7004769000050146],[None],1715.417297900014,1715.4308919000032,1715.4308919000032,1715.4308919000032,1716.7478184000065,5,1.3153599000070244,5,1.3153599000070244,,,,,,,,sub149_NB,001,2026-02-03_11h41.50.843,recognitionstage,,2025.1.1,59.98814634280907,2026-02-03 11h42.38.087277 +0530,
,,,23,23,0,29,frames\Vid29_BB_T.png,frames\Vid29_L.png,['r'],1,[3.407362199999625],[None],5,0.9482686000119429,,,,,0,23,23,28,1716.7835871000134,,27,Male,Right handed,Normal,,,,,,,,,,,,,,,,,,,,,,,,,,,,,,,,,,,,,,,,1716.773907900002,1716.7835871000134,1716.7835871000134,1716.7835871000134,1716.7835871000134,1716.7835871000134,1716.7835871000134,1720.19909010001,['r'],1,[3.407362199999625],[None],1720.1997854000074,1720.2138113999972,1720.2138113999972,1720.2138113999972,1721.165150899993,5,0.9482686000119429,5,0.9482686000119429,,,,,,,,sub149_NB,001,2026-02-03_11h41.50.843,recognitionstage,,2025.1.1,59.98814634280907,2026-02-03 11h42.38.087277 +0530,
,,,24,24,0,11,frames\Vid11_EM_T.png,frames\Vid11_L.png,['r'],1,[4.5515982000215445],[None],3,1.0157708000042476,,,,,0,24,24,10,1721.231412299996,,27,Male,Right handed,Normal,,,,,,,,,,,,,,,,,,,,,,,,,,,,,,,,,,,,,,,,1721.2205569999933,1721.231412299996,1721.231412299996,1721.231412299996,1721.231412299996,1721.231412299996,1721.231412299996,1725.7986359999923,['r'],1,[4.5515982000215445],[None],1725.7993317999935,1725.8141901000054,1725.8141901000054,1725.8141901000054,1726.8316329999943,3,1.0157708000042476,3,1.0157708000042476,,,,,,,,sub149_NB,001,2026-02-03_11h41.50.843,recognitionstage,,2025.1.1,59.98814634280907,2026-02-03 11h42.38.087277 +0530,
,,,25,25,0,26,frames\Vid26_EM_T.png,frames\Vid26_L.png,['l'],1,[3.315964500012342],[None],5,1.8315996000019368,,,,,0,25,25,25,1726.8829890000052,,27,Male,Right handed,Normal,,,,,,,,,,,,,,,,,,,,,,,,,,,,,,,,,,,,,,,,1726.8609330999898,1726.8829890000052,1726.8829890000052,1726.8829890000052,1726.8829890000052,1726.8829890000052,1726.8829890000052,1730.2002496999921,['l'],1,[3.315964500012342],[None],1730.2012625999923,1730.2141364999989,1730.2141364999989,1730.2141364999989,1732.0476369000098,5,1.8315996000019368,5,1.8315996000019368,,,,,,,,sub149_NB,001,2026-02-03_11h41.50.843,recognitionstage,,2025.1.1,59.98814634280907,2026-02-03 11h42.38.087277 +0530,
,,,26,26,0,14,frames\Vid14_BB_T.png,frames\Vid14_L.png,['l'],1,[3.115834199998062],[None],3,1.0317699000006542,,,,,0,26,26,13,1732.1311004000017,,27,Male,Right handed,Normal,,,,,,,,,,,,,,,,,,,,,,,,,,,,,,,,,,,,,,,,1732.1109273000038,1732.1311004000017,1732.1311004000017,1732.1311004000017,1732.1311004000017,1732.1311004000017,1732.1311004000017,1735.2492394,['l'],1,[3.115834199998062],[None],1735.2500964000064,1735.264036700013,1735.264036700013,1735.264036700013,1736.2980913000065,3,1.0317699000006542,3,1.0317699000006542,,,,,,,,sub149_NB,001,2026-02-03_11h41.50.843,recognitionstage,,2025.1.1,59.98814634280907,2026-02-03 11h42.38.087277 +0530,
,,,27,27,0,38,frames\Vid38_EM_T.png,frames\Vid38_L.png,['r'],1,[3.6329564999905415],[None],5,0.8796254000044428,,,,,0,27,27,37,1736.350142500014,,27,Male,Right handed,Normal,,,,,,,,,,,,,,,,,,,,,,,,,,,,,,,,,,,,,,,,1736.3262045999872,1736.350142500014,1736.350142500014,1736.350142500014,1736.350142500014,1736.350142500014,1736.350142500014,1739.9840377999935,['r'],1,[3.6329564999905415],[None],1739.9855155000114,1739.997641199996,1739.997641199996,1739.997641199996,1740.8813873000036,5,0.8796254000044428,5,0.8796254000044428,,,,,,,,sub149_NB,001,2026-02-03_11h41.50.843,recognitionstage,,2025.1.1,59.98814634280907,2026-02-03 11h42.38.087277 +0530,
,,,28,28,0,9,frames\Vid9_EM_T.png,frames\Vid9_L.png,['r'],1,[3.2749394999991637],[None],2,2.298998499987647,,,,,0,28,28,8,1740.9481276000151,,27,Male,Right handed,Normal,,,,,,,,,,,,,,,,,,,,,,,,,,,,,,,,,,,,,,,,1740.9314148999983,1740.9481276000151,1740.9481276000151,1740.9481276000151,1740.9481276000151,1740.9481276000151,1740.9481276000151,1744.2329883000057,['r'],1,[3.2749394999991637],[None],1744.2339703000034,1744.2470819999871,1744.2470819999871,1744.2470819999871,1746.548394100013,2,2.298998499987647,2,2.298998499987647,,,,,,,,sub149_NB,001,2026-02-03_11h41.50.843,recognitionstage,,2025.1.1,59.98814634280907,2026-02-03 11h42.38.087277 +0530,
,,,29,29,0,1,frames\Vid1_EM_T.png,frames\Vid1_L.png,['r'],1,[6.725143299991032],[None],4,1.1144559999811463,,,,,0,29,29,0,1746.633903000009,,27,Male,Right handed,Normal,,,,,,,,,,,,,,,,,,,,,,,,,,,,,,,,,,,,,,,,1746.6126177000115,1746.633903000009,1746.633903000009,1746.633903000009,1746.633903000009,1746.633903000009,1746.633903000009,1753.3666124999872,['r'],1,[6.725143299991032],[None],1753.367958399991,1753.3808169999975,1753.3808169999975,1753.3808169999975,1754.497890300001,4,1.1144559999811463,4,1.1144559999811463,,,,,,,,sub149_NB,001,2026-02-03_11h41.50.843,recognitionstage,,2025.1.1,59.98814634280907,2026-02-03 11h42.38.087277 +0530,
,,,30,30,0,15,frames\Vid15_BB_T.png,frames\Vid15_L.png,['r'],1,[2.2862829999940004],[None],4,0.7971644999925047,,,,,0,30,30,14,1754.5846447999938,,27,Male,Right handed,Normal,,,,,,,,,,,,,,,,,,,,,,,,,,,,,,,,,,,,,,,,1754.5598330000066,1754.5846447999938,1754.5846447999938,1754.5846447999938,1754.5846447999938,1754.5846447999938,1754.5846447999938,1756.883013899991,['r'],1,[2.2862829999940004],[None],1756.8840655999957,1756.897571300011,1756.897571300011,1756.897571300011,1757.6986526999972,4,0.7971644999925047,4,0.7971644999925047,,,,,,,,sub149_NB,001,2026-02-03_11h41.50.843,recognitionstage,,2025.1.1,59.98814634280907,2026-02-03 11h42.38.087277 +0530,
,,,31,31,0,6,frames\Vid6_BB_T.png,frames\Vid6_L.png,['r'],1,[2.1185404999996535],[None],5,0.9149437000160106,,,,,0,31,31,5,1757.784430700005,,27,Male,Right handed,Normal,,,,,,,,,,,,,,,,,,,,,,,,,,,,,,,,,,,,,,,,1757.770843300008,1757.784430700005,1757.784430700005,1757.784430700005,1757.784430700005,1757.784430700005,1757.784430700005,1759.915950900002,['r'],1,[2.1185404999996535],[None],1759.9168590999907,1759.9310864,1759.9310864,1759.9310864,1760.848116100009,5,0.9149437000160106,5,0.9149437000160106,,,,,,,,sub149_NB,001,2026-02-03_11h41.50.843,recognitionstage,,2025.1.1,59.98814634280907,2026-02-03 11h42.38.087277 +0530,
,,,32,32,0,3,frames\Vid3_BB_T.png,frames\Vid3_L.png,['l'],1,[4.471362799988128],[None],5,1.1477423000033014,,,,,0,32,32,2,1760.9355357000022,,27,Male,Right handed,Normal,,,,,,,,,,,,,,,,,,,,,,,,,,,,,,,,,,,,,,,,1760.9084900000016,1760.9355357000022,1760.9355357000022,1760.9355357000022,1760.9355357000022,1760.9355357000022,1760.9355357000022,1765.4162826999964,['l'],1,[4.471362799988128],[None],1765.4174031000002,1765.43027479999,1765.43027479999,1765.43027479999,1766.5817765000102,5,1.1477423000033014,5,1.1477423000033014,,,,,,,,sub149_NB,001,2026-02-03_11h41.50.843,recognitionstage,,2025.1.1,59.98814634280907,2026-02-03 11h42.38.087277 +0530,
,,,33,33,0,23,frames\Vid23_EM_T.png,frames\Vid23_L.png,['r'],1,[3.6537705999799073],[None],2,1.5153428000048734,,,,,0,33,33,22,1766.6332004000142,,27,Male,Right handed,Normal,,,,,,,,,,,,,,,,,,,,,,,,,,,,,,,,,,,,,,,,1766.611405100004,1766.6332004000142,1766.6332004000142,1766.6332004000142,1766.6332004000142,1766.6332004000142,1766.6332004000142,1770.298881099996,['r'],1,[3.6537705999799073],[None],1770.2997438999882,1770.3141478000034,1770.3141478000034,1770.3141478000034,1771.830889200006,2,1.5153428000048734,2,1.5153428000048734,,,,,,,,sub149_NB,001,2026-02-03_11h41.50.843,recognitionstage,,2025.1.1,59.98814634280907,2026-02-03 11h42.38.087277 +0530,
,,,34,34,0,36,frames\Vid36_BB_T.png,frames\Vid36_L.png,['l'],1,[3.5033458000107203],[None],4,1.1317286000121385,,,,,0,34,34,35,1771.8638312999974,,27,Male,Right handed,Normal,,,,,,,,,,,,,,,,,,,,,,,,,,,,,,,,,,,,,,,,1771.8563402,1771.8638312999974,1771.8638312999974,1771.8638312999974,1771.8638312999974,1771.8638312999974,1771.8638312999974,1775.3826779999945,['l'],1,[3.5033458000107203],[None],1775.3834895000036,1775.3970640999905,1775.3970640999905,1775.3970640999905,1776.5309551999962,4,1.1317286000121385,4,1.1317286000121385,,,,,,,,sub149_NB,001,2026-02-03_11h41.50.843,recognitionstage,,2025.1.1,59.98814634280907,2026-02-03 11h42.38.087277 +0530,
,,,35,35,0,10,frames\Vid10_BB_T.png,frames\Vid10_L.png,['r'],1,[2.0566983000026084],[None],5,0.864953999989666,,,,,0,35,35,9,1776.5983197999885,,27,Male,Right handed,Normal,,,,,,,,,,,,,,,,,,,,,,,,,,,,,,,,,,,,,,,,1776.5910760000115,1776.5983197999885,1776.5983197999885,1776.5983197999885,1776.5983197999885,1776.5983197999885,1776.5983197999885,1778.6656593999942,['r'],1,[2.0566983000026084],[None],1778.6664859000011,1778.680777200003,1778.680777200003,1778.680777200003,1779.548493899987,5,0.864953999989666,5,0.864953999989666,,,,,,,,sub149_NB,001,2026-02-03_11h41.50.843,recognitionstage,,2025.1.1,59.98814634280907,2026-02-03 11h42.38.087277 +0530,
,,,36,36,0,5,frames\Vid5_EM_T.png,frames\Vid5_L.png,['r'],1,[2.2935026999912225],[None],4,0.8987059000064619,,,,,0,36,36,4,1779.617384400015,,27,Male,Right handed,Normal,,,,,,,,,,,,,,,,,,,,,,,,,,,,,,,,,,,,,,,,1779.594704499992,1779.617384400015,1779.617384400015,1779.617384400015,1779.617384400015,1779.617384400015,1779.617384400015,1781.91527279999,['r'],1,[2.2935026999912225],[None],1781.9160921000002,1781.9309175999952,1781.9309175999952,1781.9309175999952,1782.831500900007,4,0.8987059000064619,4,0.8987059000064619,,,,,,,,sub149_NB,001,2026-02-03_11h41.50.843,recognitionstage,,2025.1.1,59.98814634280907,2026-02-03 11h42.38.087277 +0530,
,,,37,37,0,27,frames\Vid27_BB_T.png,frames\Vid27_L.png,['l'],1,[3.2688578000233974],[None],5,1.2645806999935303,,,,,0,37,37,26,1782.8661181000061,,27,Male,Right handed,Normal,,,,,,,,,,,,,,,,,,,,,,,,,,,,,,,,,,,,,,,,1782.8537035000045,1782.8661181000061,1782.8661181000061,1782.8661181000061,1782.8661181000061,1782.8661181000061,1782.8661181000061,1786.150241299998,['l'],1,[3.2688578000233974],[None],1786.1512960999971,1786.1637511000154,1786.1637511000154,1786.1637511000154,1787.4310953000095,5,1.2645806999935303,5,1.2645806999935303,,,,,,,,sub149_NB,001,2026-02-03_11h41.50.843,recognitionstage,,2025.1.1,59.98814634280907,2026-02-03 11h42.38.087277 +0530,
,,,38,38,0,4,frames\Vid4_EM_T.png,frames\Vid4_L.png,['r'],1,[4.076847600023029],[None],5,0.8312809999915771,,,,,0,38,38,3,1787.498112100002,,27,Male,Right handed,Normal,,,,,,,,,,,,,,,,,,,,,,,,,,,,,,,,,,,,,,,,1787.4899524000066,1787.498112100002,1787.498112100002,1787.498112100002,1787.498112100002,1787.498112100002,1787.498112100002,1791.583164700016,['r'],1,[4.076847600023029],[None],1791.5841957000084,1791.5969901999924,1791.5969901999924,1791.5969901999924,1792.4309033000027,5,0.8312809999915771,5,0.8312809999915771,,,,,,,,sub149_NB,001,2026-02-03_11h41.50.843,recognitionstage,,2025.1.1,59.98814634280907,2026-02-03 11h42.38.087277 +0530,
,,,39,39,0,37,frames\Vid37_BB_T.png,frames\Vid37_L.png,['l'],1,[2.354993800021475],[None],5,0.7169327999872621,,,,,0,39,39,36,1792.4838183000102,,27,Male,Right handed,Normal,,,,,,,,,,,,,,,,,,,,,,,,,,,,,,,,,,,,,,,,1792.4596770000062,1792.4838183000102,1792.4838183000102,1792.4838183000102,1792.4838183000102,1792.4838183000102,1792.4838183000102,1794.8481575000042,['l'],1,[2.354993800021475],[None],1794.8488060999953,1794.8640719999967,1794.8640719999967,1794.8640719999967,1795.5810539000086,5,0.7169327999872621,5,0.7169327999872621,,,,,,,,sub149_NB,001,2026-02-03_11h41.50.843,recognitionstage,,2025.1.1,59.98814634280907,2026-02-03 11h42.38.087277 +0530,
,,,,,,,,,,,,,,,,,,,,,,,,,27,Male,Right handed,Normal,,,,,,,,,,,,,,,,,,,,,,,,,,,,,,,,,,,,,,,,,,,,,,,,,,,,,,,,,,,,,1795.5811542999872,1795.5987337999977,1795.5987337999977,1801.8660383000097,space,6.256212500011316,None,sub149_NB,001,2026-02-03_11h41.50.843,recognitionstage,,2025.1.1,59.98814634280907,2026-02-03 11h42.38.087277 +0530,
