path,duration,is_repeat,thisN,thisTrialN,thisRepN,movie_id,target_img,lure_img,resp.keys,resp.corr,resp.rt,resp.duration,conf_radio.response,conf_radio.rt,movie.thisRepN,movie.thisTrialN,movie.thisN,movie.thisIndex,recogloop.thisRepN,recogloop.thisTrialN,recogloop.thisN,recogloop.thisIndex,thisRow.t,notes,age,gender,handedness,vision,caffeine_2h,alcohol_smoke_12h,demographics.started,demographics.stopped,Instructions.started,text1.started,key_resp.started,Instructions.stopped,key_resp.keys,key_resp.rt,key_resp.duration,instruction_2.started,text2.started,key_resp_2.started,instruction_2.stopped,key_resp_2.keys,key_resp_2.rt,key_resp_2.duration,Videos.started,movie_2.started,vigilance_resp.started,movie_2.stopped,Videos.stopped,movie.vigilance_resp.keys,vigilance_pressed,vigilance_correct,ISI.started,text.started,ISI.stopped,text.stopped,movie.vigilance_resp.rt,movie.vigilance_resp.duration,recognition.started,text_4.started,key_resp_3.started,recognition.stopped,key_resp_3.keys,key_resp_3.rt,key_resp_3.duration,recognition_task.started,leftimage.started,rightimage.started,resp.started,frames_question.started,right_label.started,left_label.started,recognition_task.stopped,recogloop.resp.keys,recogloop.resp.corr,recogloop.resp.rt,recogloop.resp.duration,confidence.started,conf_text.started,conf_radio.started,conf_label.started,confidence.stopped,recogloop.conf_radio.response,recogloop.conf_radio.rt,confidence,confidence_rt,thank_you.started,text_6.started,key_resp_4.started,thank_you.stopped,key_resp_4.keys,participant,session,date,expName,expVersion,psychopyVersion,frameRate,expStart,...103
,,,,,,,,,,,,,,,,,,,,,,,,,24,Male,Right handed,Normal,Caffeine consumed in last 2 hours?,Alcohol or smoking in last 12 hours?,0.004981199992471375,0.0074062999919988215,,,,,,,,,,,,,,,,,,,,,,,,,,,,,,,,,,,,,,,,,,,,,,,,,,,,,,,,,,,,,,sub131_AB,001,2026-02-02_15h36.48.981,recognitionstage,,2025.1.1,59.96724588871891,2026-02-02 15h37.30.550505 +0530,
,,,,,,,,,,,,,,,,,,,,,,,,,24,Male,Right handed,Normal,,,,,0.0074277999956393614,0.024179999993066303,0.024179999993066303,20.176210199992056,space,20.141607500001555,None,,,,,,,,,,,,,,,,,,,,,,,,,,,,,,,,,,,,,,,,,,,,,,,,,,,,,,,sub131_AB,001,2026-02-02_15h36.48.981,recognitionstage,,2025.1.1,59.96724588871891,2026-02-02 15h37.30.550505 +0530,
,,,,,,,,,,,,,,,,,,,,,,,,,24,Male,Right handed,Normal,,,,,,,,,,,,20.17628960000002,20.192005399992922,20.192005399992922,31.943066299994825,space,11.749575099995127,None,,,,,,,,,,,,,,,,,,,,,,,,,,,,,,,,,,,,,,,,,,,,,,,,sub131_AB,001,2026-02-02_15h36.48.981,recognitionstage,,2025.1.1,59.96724588871891,2026-02-02 15h37.30.550505 +0530,
abrupt_videos\abrupt_3.mp4,27,1,44,44,0,,,,,,,,,,0,44,44,2,,,,,1566.7563908999873,,24,Male,Right handed,Normal,,,,,,,,,,,,,,,,,,,1566.7056421999878,1566.7563908999873,1566.7563908999873,1563.4878633999906,1570.1580495999951,space,1,1,1570.2728226999898,1570.2887954999896,1572.7750667999935,1527.3729161999945,3.4004990000103135,None,1572.7751460999862,1572.7910809999885,1572.7910809999885,1592.6753237999947,space,19.870029199999408,None,,,,,,,,,,,,,,,,,,,,,,,,,,,sub131_AB,001,2026-02-02_15h36.48.981,recognitionstage,,2025.1.1,59.96724588871891,2026-02-02 15h37.30.550505 +0530,
,,,0,0,0,30,frames\Vid30_EM_T.png,frames\Vid30_L.png,['r'],1,[14.891961500004982],[None],3,7.431414100006805,,,,,0,0,0,29,1592.7048941999965,,24,Male,Right handed,Normal,,,,,,,,,,,,,,,,,,,,,,,,,,,,,,,,,,,,,,,,1592.6918409999926,1592.7048941999965,1592.7048941999965,1592.7048941999965,1592.7048941999965,1592.7048941999965,1592.7048941999965,1607.6081328,['r'],1,[14.891961500004982],[None],1607.6091420999874,1607.6232913999993,1607.6232913999993,1607.6232913999993,1615.057482499993,3,7.431414100006805,3,7.431414100006805,,,,,,sub131_AB,001,2026-02-02_15h36.48.981,recognitionstage,,2025.1.1,59.96724588871891,2026-02-02 15h37.30.550505 +0530,
,,,1,1,0,4,frames\Vid4_EM_T.png,frames\Vid4_L.png,['r'],1,[6.338740100007271],[None],4,2.0141394999955082,,,,,0,1,1,3,1615.1221349999978,,24,Male,Right handed,Normal,,,,,,,,,,,,,,,,,,,,,,,,,,,,,,,,,,,,,,,,1615.106524399991,1615.1221349999978,1615.1221349999978,1615.1221349999978,1615.1221349999978,1615.1221349999978,1615.1221349999978,1621.475345199986,['r'],1,[6.338740100007271],[None],1621.4762983999972,1621.4895891999913,1621.4895891999913,1621.4895891999913,1623.5071257999953,4,2.0141394999955082,4,2.0141394999955082,,,,,,sub131_AB,001,2026-02-02_15h36.48.981,recognitionstage,,2025.1.1,59.96724588871891,2026-02-02 15h37.30.550505 +0530,
,,,2,2,0,10,frames\Vid10_BB_T.png,frames\Vid10_L.png,['l'],1,[7.280929600005038],[None],3,3.6974379000021145,,,,,0,2,2,9,1623.5722635999991,,24,Male,Right handed,Normal,,,,,,,,,,,,,,,,,,,,,,,,,,,,,,,,,,,,,,,,1623.5618004999997,1623.5722635999991,1623.5722635999991,1623.5722635999991,1623.5722635999991,1623.5722635999991,1623.5722635999991,1630.85933929999,['l'],1,[7.280929600005038],[None],1630.8603944999923,1630.8729971999855,1630.8729971999855,1630.8729971999855,1634.5736233999924,3,3.6974379000021145,3,3.6974379000021145,,,,,,sub131_AB,001,2026-02-02_15h36.48.981,recognitionstage,,2025.1.1,59.96724588871891,2026-02-02 15h37.30.550505 +0530,
,,,3,3,0,33,frames\Vid33_BB_T.png,frames\Vid33_L.png,['r'],1,[4.153779000000213],[None],4,2.348203600005945,,,,,0,3,3,32,1634.5951613999932,,24,Male,Right handed,Normal,,,,,,,,,,,,,,,,,,,,,,,,,,,,,,,,,,,,,,,,1634.5828402999905,1634.5951613999932,1634.5951613999932,1634.5951613999932,1634.5951613999932,1634.5951613999932,1634.5951613999932,1638.7582785999984,['r'],1,[4.153779000000213],[None],1638.7589753999928,1638.7729148999933,1638.7729148999933,1638.7729148999933,1641.1243880999973,4,2.348203600005945,4,2.348203600005945,,,,,,sub131_AB,001,2026-02-02_15h36.48.981,recognitionstage,,2025.1.1,59.96724588871891,2026-02-02 15h37.30.550505 +0530,
,,,4,4,0,38,frames\Vid38_EM_T.png,frames\Vid38_L.png,['l'],0,[13.616083400003845],[None],3,2.165196999994805,,,,,0,4,4,37,1641.1567365999945,,24,Male,Right handed,Normal,,,,,,,,,,,,,,,,,,,,,,,,,,,,,,,,,,,,,,,,1641.1360795999935,1641.1567365999945,1641.1567365999945,1641.1567365999945,1641.1567365999945,1641.1567365999945,1641.1567365999945,1654.774935399997,['l'],0,[13.616083400003845],[None],1654.7757215999882,1654.7895247999986,1654.7895247999986,1654.7895247999986,1656.957104599991,3,2.165196999994805,3,2.165196999994805,,,,,,sub131_AB,001,2026-02-02_15h36.48.981,recognitionstage,,2025.1.1,59.96724588871891,2026-02-02 15h37.30.550505 +0530,
,,,5,5,0,3,frames\Vid3_BB_T.png,frames\Vid3_L.png,['r'],1,[7.958097099995939],[None],4,1.5995387000002665,,,,,0,5,5,2,1657.006794099987,,24,Male,Right handed,Normal,,,,,,,,,,,,,,,,,,,,,,,,,,,,,,,,,,,,,,,,1656.9963808999892,1657.006794099987,1657.006794099987,1657.006794099987,1657.006794099987,1657.006794099987,1657.006794099987,1664.9746922999911,['r'],1,[7.958097099995939],[None],1664.975491899997,1664.9907660999888,1664.9907660999888,1664.9907660999888,1666.5909923999861,4,1.5995387000002665,4,1.5995387000002665,,,,,,sub131_AB,001,2026-02-02_15h36.48.981,recognitionstage,,2025.1.1,59.96724588871891,2026-02-02 15h37.30.550505 +0530,
,,,6,6,0,7,frames\Vid7_EM_T.png,frames\Vid7_L.png,['r'],1,[4.530354999995325],[None],4,1.0333093000081135,,,,,0,6,6,6,1666.6424900999991,,24,Male,Right handed,Normal,,,,,,,,,,,,,,,,,,,,,,,,,,,,,,,,,,,,,,,,1666.6336959999899,1666.6424900999991,1666.6424900999991,1666.6424900999991,1666.6424900999991,1666.6424900999991,1666.6424900999991,1671.1741941999935,['r'],1,[4.530354999995325],[None],1671.1748731999978,1671.1899100999872,1671.1899100999872,1671.1899100999872,1672.224518899995,4,1.0333093000081135,4,1.0333093000081135,,,,,,sub131_AB,001,2026-02-02_15h36.48.981,recognitionstage,,2025.1.1,59.96724588871891,2026-02-02 15h37.30.550505 +0530,
,,,7,7,0,39,frames\Vid39_BB_T.png,frames\Vid39_L.png,['r'],1,[5.024997699991218],[None],4,1.4494967999926303,,,,,0,7,7,38,1672.2438563999895,,24,Male,Right handed,Normal,,,,,,,,,,,,,,,,,,,,,,,,,,,,,,,,,,,,,,,,1672.2333929999877,1672.2438563999895,1672.2438563999895,1672.2438563999895,1672.2438563999895,1672.2438563999895,1672.2438563999895,1677.274685499986,['r'],1,[5.024997699991218],[None],1677.275584899995,1677.2904029999918,1677.2904029999918,1677.2904029999918,1678.7400561999966,4,1.4494967999926303,4,1.4494967999926303,,,,,,sub131_AB,001,2026-02-02_15h36.48.981,recognitionstage,,2025.1.1,59.96724588871891,2026-02-02 15h37.30.550505 +0530,
,,,8,8,0,28,frames\Vid28_EM_T.png,frames\Vid28_L.png,['r'],1,[4.606689199994435],[None],3,1.4643287000071723,,,,,0,8,8,27,1678.758418399986,,24,Male,Right handed,Normal,,,,,,,,,,,,,,,,,,,,,,,,,,,,,,,,,,,,,,,,1678.7490392999898,1678.758418399986,1678.758418399986,1678.758418399986,1678.758418399986,1678.758418399986,1678.758418399986,1683.3753583999933,['r'],1,[4.606689199994435],[None],1683.376380799993,1683.3901981999952,1683.3901981999952,1683.3901981999952,1684.8576178999938,3,1.4643287000071723,3,1.4643287000071723,,,,,,sub131_AB,001,2026-02-02_15h36.48.981,recognitionstage,,2025.1.1,59.96724588871891,2026-02-02 15h37.30.550505 +0530,
,,,9,9,0,2,frames\Vid2_BB_T.png,frames\Vid2_L.png,['r'],1,[5.617805400004727],[None],4,1.1142685999948299,,,,,0,9,9,1,1684.907091599991,,24,Male,Right handed,Normal,,,,,,,,,,,,,,,,,,,,,,,,,,,,,,,,,,,,,,,,1684.895651599989,1684.907091599991,1684.907091599991,1684.907091599991,1684.907091599991,1684.907091599991,1684.907091599991,1690.5256222999888,['r'],1,[5.617805400004727],[None],1690.5261287999892,1690.5405530999997,1690.5405530999997,1690.5405530999997,1691.6577556999982,4,1.1142685999948299,4,1.1142685999948299,,,,,,sub131_AB,001,2026-02-02_15h36.48.981,recognitionstage,,2025.1.1,59.96724588871891,2026-02-02 15h37.30.550505 +0530,
,,,10,10,0,11,frames\Vid11_EM_T.png,frames\Vid11_L.png,['l'],1,[5.78275849999045],[None],4,3.565614300008747,,,,,0,10,10,10,1691.710269099989,,24,Male,Right handed,Normal,,,,,,,,,,,,,,,,,,,,,,,,,,,,,,,,,,,,,,,,1691.6991375999933,1691.710269099989,1691.710269099989,1691.710269099989,1691.710269099989,1691.710269099989,1691.710269099989,1697.5079751999874,['l'],1,[5.78275849999045],[None],1697.5088958999986,1697.5233728999883,1697.5233728999883,1697.5233728999883,1701.0907771999919,4,3.565614300008747,4,3.565614300008747,,,,,,sub131_AB,001,2026-02-02_15h36.48.981,recognitionstage,,2025.1.1,59.96724588871891,2026-02-02 15h37.30.550505 +0530,
,,,11,11,0,18,frames\Vid18_EM_T.png,frames\Vid18_L.png,['r'],1,[4.783502299993415],[None],3,1.7157198999921093,,,,,0,11,11,17,1701.1253910999949,,24,Male,Right handed,Normal,,,,,,,,,,,,,,,,,,,,,,,,,,,,,,,,,,,,,,,,1701.101562099997,1701.1253910999949,1701.1253910999949,1701.1253910999949,1701.1253910999949,1701.1253910999949,1701.1253910999949,1705.9245209999935,['r'],1,[4.783502299993415],[None],1705.9253307999898,1705.9400555999891,1705.9400555999891,1705.9400555999891,1707.6567948999873,3,1.7157198999921093,3,1.7157198999921093,,,,,,sub131_AB,001,2026-02-02_15h36.48.981,recognitionstage,,2025.1.1,59.96724588871891,2026-02-02 15h37.30.550505 +0530,
,,,12,12,0,9,frames\Vid9_EM_T.png,frames\Vid9_L.png,['l'],1,[8.465805400002864],[None],3,1.3969974000065122,,,,,0,12,12,8,1707.7071216999902,,24,Male,Right handed,Normal,,,,,,,,,,,,,,,,,,,,,,,,,,,,,,,,,,,,,,,,1707.6933580999903,1707.7071216999902,1707.7071216999902,1707.7071216999902,1707.7071216999902,1707.7071216999902,1707.7071216999902,1716.1755492999946,['l'],1,[8.465805400002864],[None],1716.177036899986,1716.189849199989,1716.189849199989,1716.189849199989,1717.5906867999875,3,1.3969974000065122,3,1.3969974000065122,,,,,,sub131_AB,001,2026-02-02_15h36.48.981,recognitionstage,,2025.1.1,59.96724588871891,2026-02-02 15h37.30.550505 +0530,
,,,13,13,0,8,frames\Vid8_BB_T.png,frames\Vid8_L.png,['r'],1,[8.242198899999494],[None],3,2.065427900000941,,,,,0,13,13,7,1717.6427471999923,,24,Male,Right handed,Normal,,,,,,,,,,,,,,,,,,,,,,,,,,,,,,,,,,,,,,,,1717.629091699986,1717.6427471999923,1717.6427471999923,1717.6427471999923,1717.6427471999923,1717.6427471999923,1717.6427471999923,1725.8919443999912,['r'],1,[8.242198899999494],[None],1725.8928422999888,1725.9065980999876,1725.9065980999876,1725.9065980999876,1727.9735277999862,3,2.065427900000941,3,2.065427900000941,,,,,,sub131_AB,001,2026-02-02_15h36.48.981,recognitionstage,,2025.1.1,59.96724588871891,2026-02-02 15h37.30.550505 +0530,
,,,14,14,0,15,frames\Vid15_BB_T.png,frames\Vid15_L.png,['r'],1,[6.473712299994077],[None],3,1.0648944999993546,,,,,0,14,14,14,1728.0432581999921,,24,Male,Right handed,Normal,,,,,,,,,,,,,,,,,,,,,,,,,,,,,,,,,,,,,,,,1728.0209527999978,1728.0432581999921,1728.0432581999921,1728.0432581999921,1728.0432581999921,1728.0432581999921,1728.0432581999921,1734.5252778999857,['r'],1,[6.473712299994077],[None],1734.5261548999988,1734.5395932999963,1734.5395932999963,1734.5395932999963,1735.6067831999972,3,1.0648944999993546,3,1.0648944999993546,,,,,,sub131_AB,001,2026-02-02_15h36.48.981,recognitionstage,,2025.1.1,59.96724588871891,2026-02-02 15h37.30.550505 +0530,
,,,15,15,0,34,frames\Vid34_BB_T.png,frames\Vid34_L.png,['r'],1,[7.329054500005441],[None],3,1.031051900004968,,,,,0,15,15,33,1735.6278232999903,,24,Male,Right handed,Normal,,,,,,,,,,,,,,,,,,,,,,,,,,,,,,,,,,,,,,,,1735.6156993999903,1735.6278232999903,1735.6278232999903,1735.6278232999903,1735.6278232999903,1735.6278232999903,1735.6278232999903,1742.95934999999,['r'],1,[7.329054500005441],[None],1742.9603680999862,1742.9728873999993,1742.9728873999993,1742.9728873999993,1744.006817299989,3,1.031051900004968,3,1.031051900004968,,,,,,sub131_AB,001,2026-02-02_15h36.48.981,recognitionstage,,2025.1.1,59.96724588871891,2026-02-02 15h37.30.550505 +0530,
,,,16,16,0,6,frames\Vid6_BB_T.png,frames\Vid6_L.png,['l'],1,[10.260430900001666],[None],3,1.1297840000042925,,,,,0,16,16,5,1744.0565999999963,,24,Male,Right handed,Normal,,,,,,,,,,,,,,,,,,,,,,,,,,,,,,,,,,,,,,,,1744.0480834999908,1744.0565999999963,1744.0565999999963,1744.0565999999963,1744.0565999999963,1744.0565999999963,1744.0565999999963,1754.3257913999987,['l'],1,[10.260430900001666],[None],1754.3274590999936,1754.3398409999936,1754.3398409999936,1754.3398409999936,1755.4742829999886,3,1.1297840000042925,3,1.1297840000042925,,,,,,sub131_AB,001,2026-02-02_15h36.48.981,recognitionstage,,2025.1.1,59.96724588871891,2026-02-02 15h37.30.550505 +0530,
,,,17,17,0,1,frames\Vid1_EM_T.png,frames\Vid1_L.png,['l'],1,[5.5013726000033785],[None],4,1.7654062999936286,,,,,0,17,17,0,1755.5434489999898,,24,Male,Right handed,Normal,,,,,,,,,,,,,,,,,,,,,,,,,,,,,,,,,,,,,,,,1755.521141899997,1755.5434489999898,1755.5434489999898,1755.5434489999898,1755.5434489999898,1755.5434489999898,1755.5434489999898,1761.0584033999912,['l'],1,[5.5013726000033785],[None],1761.0591384999861,1761.072861499997,1761.072861499997,1761.072861499997,1762.840148599993,4,1.7654062999936286,4,1.7654062999936286,,,,,,sub131_AB,001,2026-02-02_15h36.48.981,recognitionstage,,2025.1.1,59.96724588871891,2026-02-02 15h37.30.550505 +0530,
,,,18,18,0,16,frames\Vid16_EM_T.png,frames\Vid16_L.png,['r'],1,[4.527017500004149],[None],4,1.3491140999976778,,,,,0,18,18,15,1762.894020199994,,24,Male,Right handed,Normal,,,,,,,,,,,,,,,,,,,,,,,,,,,,,,,,,,,,,,,,1762.8795126999903,1762.894020199994,1762.894020199994,1762.894020199994,1762.894020199994,1762.894020199994,1762.894020199994,1767.4243302999967,['r'],1,[4.527017500004149],[None],1767.4251573999936,1767.4399524999899,1767.4399524999899,1767.4399524999899,1768.7903650999942,4,1.3491140999976778,4,1.3491140999976778,,,,,,sub131_AB,001,2026-02-02_15h36.48.981,recognitionstage,,2025.1.1,59.96724588871891,2026-02-02 15h37.30.550505 +0530,
,,,19,19,0,12,frames\Vid12_EM_T.png,frames\Vid12_L.png,['r'],1,[3.6971074000030058],[None],4,1.1815455999894766,,,,,0,19,19,11,1768.8598745999916,,24,Male,Right handed,Normal,,,,,,,,,,,,,,,,,,,,,,,,,,,,,,,,,,,,,,,,1768.8340187999856,1768.8598745999916,1768.8598745999916,1768.8598745999916,1768.8598745999916,1768.8598745999916,1768.8598745999916,1772.5582570999977,['r'],1,[3.6971074000030058],[None],1772.5592158999934,1772.5733506999968,1772.5733506999968,1772.5733506999968,1773.7566152999934,4,1.1815455999894766,4,1.1815455999894766,,,,,,sub131_AB,001,2026-02-02_15h36.48.981,recognitionstage,,2025.1.1,59.96724588871891,2026-02-02 15h37.30.550505 +0530,
,,,20,20,0,36,frames\Vid36_BB_T.png,frames\Vid36_L.png,['r'],1,[4.8516186000051675],[None],4,1.0817786999978125,,,,,0,20,20,35,1773.793191699995,,24,Male,Right handed,Normal,,,,,,,,,,,,,,,,,,,,,,,,,,,,,,,,,,,,,,,,1773.7683498999977,1773.793191699995,1773.793191699995,1773.793191699995,1773.793191699995,1773.793191699995,1773.793191699995,1778.658405299997,['r'],1,[4.8516186000051675],[None],1778.6593461999873,1778.6734083999909,1778.6734083999909,1778.6734083999909,1779.756565299991,4,1.0817786999978125,4,1.0817786999978125,,,,,,sub131_AB,001,2026-02-02_15h36.48.981,recognitionstage,,2025.1.1,59.96724588871891,2026-02-02 15h37.30.550505 +0530,
,,,21,21,0,37,frames\Vid37_BB_T.png,frames\Vid37_L.png,['l'],1,[3.1426787999953376],[None],4,0.8142315000004601,,,,,0,21,21,36,1779.7901617999887,,24,Male,Right handed,Normal,,,,,,,,,,,,,,,,,,,,,,,,,,,,,,,,,,,,,,,,1779.7681531999988,1779.7901617999887,1779.7901617999887,1779.7901617999887,1779.7901617999887,1779.7901617999887,1779.7901617999887,1782.9423428999871,['l'],1,[3.1426787999953376],[None],1782.9433091999963,1782.9566157999943,1782.9566157999943,1782.9566157999943,1783.7739429999929,4,0.8142315000004601,4,0.8142315000004601,,,,,,sub131_AB,001,2026-02-02_15h36.48.981,recognitionstage,,2025.1.1,59.96724588871891,2026-02-02 15h37.30.550505 +0530,
,,,22,22,0,13,frames\Vid13_BB_T.png,frames\Vid13_L.png,['r'],1,[6.493002500006696],[None],4,1.0323717999999644,,,,,0,22,22,12,1783.8238532999967,,24,Male,Right handed,Normal,,,,,,,,,,,,,,,,,,,,,,,,,,,,,,,,,,,,,,,,1783.807174799993,1783.8238532999967,1783.8238532999967,1783.8238532999967,1783.8238532999967,1783.8238532999967,1783.8238532999967,1790.3240416999906,['r'],1,[6.493002500006696],[None],1790.324938299993,1790.3402727999928,1790.3402727999928,1790.3402727999928,1791.3746162999887,4,1.0323717999999644,4,1.0323717999999644,,,,,,sub131_AB,001,2026-02-02_15h36.48.981,recognitionstage,,2025.1.1,59.96724588871891,2026-02-02 15h37.30.550505 +0530,
,,,23,23,0,24,frames\Vid24_BB_T.png,frames\Vid24_L.png,['l'],1,[4.084600700007286],[None],4,0.8649178000050597,,,,,0,23,23,23,1791.4087394999951,,24,Male,Right handed,Normal,,,,,,,,,,,,,,,,,,,,,,,,,,,,,,,,,,,,,,,,1791.3877020999935,1791.4087394999951,1791.4087394999951,1791.4087394999951,1791.4087394999951,1791.4087394999951,1791.4087394999951,1795.5083020999882,['l'],1,[4.084600700007286],[None],1795.5088295999885,1795.5232722999936,1795.5232722999936,1795.5232722999936,1796.390529899989,4,0.8649178000050597,4,0.8649178000050597,,,,,,sub131_AB,001,2026-02-02_15h36.48.981,recognitionstage,,2025.1.1,59.96724588871891,2026-02-02 15h37.30.550505 +0530,
,,,24,24,0,22,frames\Vid22_EM_T.png,frames\Vid22_L.png,['r'],1,[4.4618148999870755],[None],4,0.8148058999940986,,,,,0,24,24,21,1796.4230913999927,,24,Male,Right handed,Normal,,,,,,,,,,,,,,,,,,,,,,,,,,,,,,,,,,,,,,,,1796.403092099994,1796.4230913999927,1796.4230913999927,1796.4230913999927,1796.4230913999927,1796.4230913999927,1796.4230913999927,1800.891965399991,['r'],1,[4.4618148999870755],[None],1800.8930648999958,1800.906880399998,1800.906880399998,1800.906880399998,1801.7237577999913,4,0.8148058999940986,4,0.8148058999940986,,,,,,sub131_AB,001,2026-02-02_15h36.48.981,recognitionstage,,2025.1.1,59.96724588871891,2026-02-02 15h37.30.550505 +0530,
,,,25,25,0,23,frames\Vid23_EM_T.png,frames\Vid23_L.png,['r'],1,[3.7443264000030467],[None],4,0.5474868000019342,,,,,0,25,25,22,1801.7565937999898,,24,Male,Right handed,Normal,,,,,,,,,,,,,,,,,,,,,,,,,,,,,,,,,,,,,,,,1801.7403788999945,1801.7565937999898,1801.7565937999898,1801.7565937999898,1801.7565937999898,1801.7565937999898,1801.7565937999898,1805.5090883999947,['r'],1,[3.7443264000030467],[None],1805.510010099999,1805.5232483999862,1805.5232483999862,1805.5232483999862,1806.0741318999935,4,0.5474868000019342,4,0.5474868000019342,,,,,,sub131_AB,001,2026-02-02_15h36.48.981,recognitionstage,,2025.1.1,59.96724588871891,2026-02-02 15h37.30.550505 +0530,
,,,26,26,0,20,frames\Vid20_EM_T.png,frames\Vid20_L.png,['r'],1,[4.3372331999999005],[None],3,1.4961739999998827,,,,,0,26,26,19,1806.0915806999983,,24,Male,Right handed,Normal,,,,,,,,,,,,,,,,,,,,,,,,,,,,,,,,,,,,,,,,1806.0803549999982,1806.0915806999983,1806.0915806999983,1806.0915806999983,1806.0915806999983,1806.0915806999983,1806.0915806999983,1810.4434677999961,['r'],1,[4.3372331999999005],[None],1810.4447129999899,1810.471291799986,1810.471291799986,1810.471291799986,1811.9572897999897,3,1.4961739999998827,3,1.4961739999998827,,,,,,sub131_AB,001,2026-02-02_15h36.48.981,recognitionstage,,2025.1.1,59.96724588871891,2026-02-02 15h37.30.550505 +0530,
,,,27,27,0,25,frames\Vid25_BB_T.png,frames\Vid25_L.png,['r'],1,[3.223257499994361],[None],5,1.1646144999976968,,,,,0,27,27,24,1811.9895570999943,,24,Male,Right handed,Normal,,,,,,,,,,,,,,,,,,,,,,,,,,,,,,,,,,,,,,,,1811.9678353999916,1811.9895570999943,1811.9895570999943,1811.9895570999943,1811.9895570999943,1811.9895570999943,1811.9895570999943,1815.224981899999,['r'],1,[3.223257499994361],[None],1815.2260198999866,1815.2401999999856,1815.2401999999856,1815.2401999999856,1816.4074459999974,5,1.1646144999976968,5,1.1646144999976968,,,,,,sub131_AB,001,2026-02-02_15h36.48.981,recognitionstage,,2025.1.1,59.96724588871891,2026-02-02 15h37.30.550505 +0530,
,,,28,28,0,26,frames\Vid26_EM_T.png,frames\Vid26_L.png,['r'],0,[8.557230300008086],[None],4,1.3494386000093073,,,,,0,28,28,25,1816.4395248999936,,24,Male,Right handed,Normal,,,,,,,,,,,,,,,,,,,,,,,,,,,,,,,,,,,,,,,,1816.4219370999926,1816.4395248999936,1816.4395248999936,1816.4395248999936,1816.4395248999936,1816.4395248999936,1816.4395248999936,1825.0078170999914,['r'],0,[8.557230300008086],[None],1825.0087239999993,1825.0234183999855,1825.0234183999855,1825.0234183999855,1826.373481799994,4,1.3494386000093073,4,1.3494386000093073,,,,,,sub131_AB,001,2026-02-02_15h36.48.981,recognitionstage,,2025.1.1,59.96724588871891,2026-02-02 15h37.30.550505 +0530,
,,,29,29,0,21,frames\Vid21_BB_T.png,frames\Vid21_L.png,['r'],1,[2.9345687000022735],[None],4,2.1485472999920603,,,,,0,29,29,20,1826.4063947999966,,24,Male,Right handed,Normal,,,,,,,,,,,,,,,,,,,,,,,,,,,,,,,,,,,,,,,,1826.3847724999941,1826.4063947999966,1826.4063947999966,1826.4063947999966,1826.4063947999966,1826.4063947999966,1826.4063947999966,1829.3423447999958,['r'],1,[2.9345687000022735],[None],1829.3433220999868,1829.3566336999938,1829.3566336999938,1829.3566336999938,1831.5069817999902,4,2.1485472999920603,4,2.1485472999920603,,,,,,sub131_AB,001,2026-02-02_15h36.48.981,recognitionstage,,2025.1.1,59.96724588871891,2026-02-02 15h37.30.550505 +0530,
,,,30,30,0,35,frames\Vid35_EM_T.png,frames\Vid35_L.png,['r'],0,[11.40771020000102],[None],2,1.6144354999996722,,,,,0,30,30,34,1831.5251381999988,,24,Male,Right handed,Normal,,,,,,,,,,,,,,,,,,,,,,,,,,,,,,,,,,,,,,,,1831.5161542999995,1831.5251381999988,1831.5251381999988,1831.5251381999988,1831.5251381999988,1831.5251381999988,1831.5251381999988,1842.941895699987,['r'],0,[11.40771020000102],[None],1842.943042999992,1842.9566170999897,1842.9566170999897,1842.9566170999897,1844.5734685999923,2,1.6144354999996722,2,1.6144354999996722,,,,,,sub131_AB,001,2026-02-02_15h36.48.981,recognitionstage,,2025.1.1,59.96724588871891,2026-02-02 15h37.30.550505 +0530,
,,,31,31,0,40,frames\Vid40_EM_T.png,frames\Vid40_L.png,['l'],1,[3.277525199999218],[None],4,1.8811626999959117,,,,,0,31,31,39,1844.5914698999986,,24,Male,Right handed,Normal,,,,,,,,,,,,,,,,,,,,,,,,,,,,,,,,,,,,,,,,1844.5832042999973,1844.5914698999986,1844.5914698999986,1844.5914698999986,1844.5914698999986,1844.5914698999986,1844.5914698999986,1847.8755134999956,['l'],1,[3.277525199999218],[None],1847.8765511999954,1847.8899631999957,1847.8899631999957,1847.8899631999957,1849.774032699992,4,1.8811626999959117,4,1.8811626999959117,,,,,,sub131_AB,001,2026-02-02_15h36.48.981,recognitionstage,,2025.1.1,59.96724588871891,2026-02-02 15h37.30.550505 +0530,
,,,32,32,0,32,frames\Vid32_EM_T.png,frames\Vid32_L.png,['l'],1,[3.7267524000053527],[None],4,0.9310100000002421,,,,,0,32,32,31,1849.8061340999993,,24,Male,Right handed,Normal,,,,,,,,,,,,,,,,,,,,,,,,,,,,,,,,,,,,,,,,1849.7857494999917,1849.8061340999993,1849.8061340999993,1849.8061340999993,1849.8061340999993,1849.8061340999993,1849.8061340999993,1853.5417358999985,['l'],1,[3.7267524000053527],[None],1853.5427055999899,1853.5566003999993,1853.5566003999993,1853.5566003999993,1854.4912130999874,4,0.9310100000002421,4,0.9310100000002421,,,,,,sub131_AB,001,2026-02-02_15h36.48.981,recognitionstage,,2025.1.1,59.96724588871891,2026-02-02 15h37.30.550505 +0530,
,,,33,33,0,5,frames\Vid5_EM_T.png,frames\Vid5_L.png,['l'],1,[4.552196300006472],[None],4,0.6824025000096299,,,,,0,33,33,4,1854.5405927999964,,24,Male,Right handed,Normal,,,,,,,,,,,,,,,,,,,,,,,,,,,,,,,,,,,,,,,,1854.5218347999908,1854.5405927999964,1854.5405927999964,1854.5405927999964,1854.5405927999964,1854.5405927999964,1854.5405927999964,1859.1077152999933,['l'],1,[4.552196300006472],[None],1859.108491299994,1859.1235150999855,1859.1235150999855,1859.1235150999855,1859.8072517999972,4,0.6824025000096299,4,0.6824025000096299,,,,,,sub131_AB,001,2026-02-02_15h36.48.981,recognitionstage,,2025.1.1,59.96724588871891,2026-02-02 15h37.30.550505 +0530,
,,,34,34,0,17,frames\Vid17_BB_T.png,frames\Vid17_L.png,['l'],1,[7.043164299990167],[None],4,1.6812170000048354,,,,,0,34,34,16,1859.841772899992,,24,Male,Right handed,Normal,,,,,,,,,,,,,,,,,,,,,,,,,,,,,,,,,,,,,,,,1859.8328859999892,1859.841772899992,1859.841772899992,1859.841772899992,1859.841772899992,1859.841772899992,1859.841772899992,1866.8920800999913,['l'],1,[7.043164299990167],[None],1866.8928257999942,1866.9062646999955,1866.9062646999955,1866.9062646999955,1868.5912132999947,4,1.6812170000048354,4,1.6812170000048354,,,,,,sub131_AB,001,2026-02-02_15h36.48.981,recognitionstage,,2025.1.1,59.96724588871891,2026-02-02 15h37.30.550505 +0530,
,,,35,35,0,14,frames\Vid14_BB_T.png,frames\Vid14_L.png,['l'],1,[4.91490539998631],[None],4,0.599538800001028,,,,,0,35,35,13,1868.6579290999944,,24,Male,Right handed,Normal,,,,,,,,,,,,,,,,,,,,,,,,,,,,,,,,,,,,,,,,1868.6370670999895,1868.6579290999944,1868.6579290999944,1868.6579290999944,1868.6579290999944,1868.6579290999944,1868.6579290999944,1873.575229199996,['l'],1,[4.91490539998631],[None],1873.5761122999975,1873.5896071999887,1873.5896071999887,1873.5896071999887,1874.1904349999968,4,0.599538800001028,4,0.599538800001028,,,,,,sub131_AB,001,2026-02-02_15h36.48.981,recognitionstage,,2025.1.1,59.96724588871891,2026-02-02 15h37.30.550505 +0530,
,,,36,36,0,31,frames\Vid31_EM_T.png,frames\Vid31_L.png,['l'],1,[4.874319300011848],[None],4,1.0322599000064656,,,,,0,36,36,30,1874.2109798999882,,24,Male,Right handed,Normal,,,,,,,,,,,,,,,,,,,,,,,,,,,,,,,,,,,,,,,,1874.1986832999974,1874.2109798999882,1874.2109798999882,1874.2109798999882,1874.2109798999882,1874.2109798999882,1874.2109798999882,1879.0915518999973,['l'],1,[4.874319300011848],[None],1879.0924653999973,1879.1065559999988,1879.1065559999988,1879.1065559999988,1880.141108699987,4,1.0322599000064656,4,1.0322599000064656,,,,,,sub131_AB,001,2026-02-02_15h36.48.981,recognitionstage,,2025.1.1,59.96724588871891,2026-02-02 15h37.30.550505 +0530,
,,,37,37,0,27,frames\Vid27_BB_T.png,frames\Vid27_L.png,['l'],1,[8.39890519999608],[None],4,0.4978924999886658,,,,,0,37,37,26,1880.1580374999903,,24,Male,Right handed,Normal,,,,,,,,,,,,,,,,,,,,,,,,,,,,,,,,,,,,,,,,1880.1503202999884,1880.1580374999903,1880.1580374999903,1880.1580374999903,1880.1580374999903,1880.1580374999903,1880.1580374999903,1888.5588269,['l'],1,[8.39890519999608],[None],1888.5600006999884,1888.573518899997,1888.573518899997,1888.573518899997,1889.074465999991,4,0.4978924999886658,4,0.4978924999886658,,,,,,sub131_AB,001,2026-02-02_15h36.48.981,recognitionstage,,2025.1.1,59.96724588871891,2026-02-02 15h37.30.550505 +0530,
,,,38,38,0,29,frames\Vid29_BB_T.png,frames\Vid29_L.png,['r'],0,[7.3628415999992285],[None],4,4.630252000002656,,,,,0,38,38,28,1889.1060892999958,,24,Male,Right handed,Normal,,,,,,,,,,,,,,,,,,,,,,,,,,,,,,,,,,,,,,,,1889.08666239999,1889.1060892999958,1889.1060892999958,1889.1060892999958,1889.1060892999958,1889.1060892999958,1889.1060892999958,1896.4756357999868,['r'],0,[7.3628415999992285],[None],1896.4770476999984,1896.5045644999918,1896.5045644999918,1896.5045644999918,1901.1242211999925,4,4.630252000002656,4,4.630252000002656,,,,,,sub131_AB,001,2026-02-02_15h36.48.981,recognitionstage,,2025.1.1,59.96724588871891,2026-02-02 15h37.30.550505 +0530,
,,,39,39,0,19,frames\Vid19_BB_T.png,frames\Vid19_L.png,['r'],1,[5.712861299994984],[None],4,0.9625951000052737,,,,,0,39,39,18,1901.1562262999942,,24,Male,Right handed,Normal,,,,,,,,,,,,,,,,,,,,,,,,,,,,,,,,,,,,,,,,1901.1377570999903,1901.1562262999942,1901.1562262999942,1901.1562262999942,1901.1562262999942,1901.1562262999942,1901.1562262999942,1906.8765222999937,['r'],1,[5.712861299994984],[None],1906.8779111999902,1906.9045685999881,1906.9045685999881,1906.9045685999881,1907.8579410999955,4,0.9625951000052737,4,0.9625951000052737,,,,,,sub131_AB,001,2026-02-02_15h36.48.981,recognitionstage,,2025.1.1,59.96724588871891,2026-02-02 15h37.30.550505 +0530,
,,,,,,,,,,,,,,,,,,,,,,,,,24,Male,Right handed,Normal,,,,,,,,,,,,,,,,,,,,,,,,,,,,,,,,,,,,,,,,,,,,,,,,,,,,,,,,,,,,,1907.8580551999912,1907.8734298999916,1907.8734298999916,1927.8583972999913,None,sub131_AB,001,2026-02-02_15h36.48.981,recognitionstage,,2025.1.1,59.96724588871891,2026-02-02 15h37.30.550505 +0530,
