path,duration,is_repeat,thisN,thisTrialN,thisRepN,movie_id,target_img,lure_img,resp.keys,resp.corr,resp.rt,resp.duration,conf_radio.response,conf_radio.rt,movie.thisRepN,movie.thisTrialN,movie.thisN,movie.thisIndex,recogloop.thisRepN,recogloop.thisTrialN,recogloop.thisN,recogloop.thisIndex,thisRow.t,notes,age,gender,handedness,vision,caffeine_2h,alcohol_smoke_12h,demographics.started,demographics.stopped,Instructions.started,text1.started,key_resp.started,Instructions.stopped,key_resp.keys,key_resp.rt,key_resp.duration,instruction_2.started,text2.started,key_resp_2.started,instruction_2.stopped,key_resp_2.keys,key_resp_2.rt,key_resp_2.duration,Videos.started,movie_2.started,vigilance_resp.started,movie_2.stopped,Videos.stopped,movie.vigilance_resp.keys,vigilance_pressed,vigilance_correct,ISI.started,text.started,text.stopped,ISI.stopped,movie.vigilance_resp.rt,movie.vigilance_resp.duration,recognition.started,text_4.started,key_resp_3.started,recognition.stopped,key_resp_3.keys,key_resp_3.rt,key_resp_3.duration,recognition_task.started,leftimage.started,rightimage.started,resp.started,frames_question.started,right_label.started,left_label.started,recognition_task.stopped,recogloop.resp.keys,recogloop.resp.corr,recogloop.resp.rt,recogloop.resp.duration,confidence.started,conf_text.started,conf_radio.started,conf_label.started,confidence.stopped,recogloop.conf_radio.response,recogloop.conf_radio.rt,confidence,confidence_rt,thank_you.started,text_6.started,key_resp_4.started,thank_you.stopped,key_resp_4.keys,key_resp_4.rt,key_resp_4.duration,participant,session,date,expName,expVersion,psychopyVersion,frameRate,expStart,...105
,,,,,,,,,,,,,,,,,,,,,,,,,24,Male,Right handed,Normal,Caffeine consumed in last 2 hours?,Alcohol or smoking in last 12 hours?,0.017019599999912316,0.019519199999194825,,,,,,,,,,,,,,,,,,,,,,,,,,,,,,,,,,,,,,,,,,,,,,,,,,,,,,,,,,,,,,,,sub127_AB,001,2026-02-01_22h32.59.893,recognitionstage,,2025.1.1,59.84476268485802,2026-02-01 22h33.47.422069 +0530,
,,,,,,,,,,,,,,,,,,,,,,,,,24,Male,Right handed,Normal,,,,,0.01953960000173538,0.03653359999952954,0.03653359999952954,12.838744699998642,space,12.79208909999943,None,,,,,,,,,,,,,,,,,,,,,,,,,,,,,,,,,,,,,,,,,,,,,,,,,,,,,,,,,sub127_AB,001,2026-02-01_22h32.59.893,recognitionstage,,2025.1.1,59.84476268485802,2026-02-01 22h33.47.422069 +0530,
,,,,,,,,,,,,,,,,,,,,,,,,,24,Male,Right handed,Normal,,,,,,,,,,,,12.838825700000598,12.853600900001766,12.853600900001766,19.522591400000238,space,6.663539500001207,None,,,,,,,,,,,,,,,,,,,,,,,,,,,,,,,,,,,,,,,,,,,,,,,,,,sub127_AB,001,2026-02-01_22h32.59.893,recognitionstage,,2025.1.1,59.84476268485802,2026-02-01 22h33.47.422069 +0530,
abrupt_videos\abrupt_36.mp4,19,0,44,44,0,,,,,,,,,,0,44,44,39,,,,,1513.3850884999993,,24,Male,Right handed,Normal,,,,,,,,,,,,,,,,,,,1513.3288561000008,1513.3850884999993,1513.3850884999993,1532.9512981000007,1532.8005449000011,None,0,1,1532.9358799000001,1532.9512981000007,1513.3850884999993,1535.4370313,1.3482982000023185,None,1535.4371178000001,1535.4529097999985,1535.4529097999985,1561.6045501000008,space,26.135281899998517,None,,,,,,,,,,,,,,,,,,,,,,,,,,,,,sub127_AB,001,2026-02-01_22h32.59.893,recognitionstage,,2025.1.1,59.84476268485802,2026-02-01 22h33.47.422069 +0530,
,,,0,0,0,13,frames\Vid13_BB_T.png,frames\Vid13_L.png,['l'],0,[4.336894399999437],[None],4,6.314751499998238,,,,,0,0,0,12,1561.6674042999985,,24,Male,Right handed,Normal,,,,,,,,,,,,,,,,,,,,,,,,,,,,,,,,,,,,,,,,1561.6475419000017,1561.6674042999985,1561.6674042999985,1561.6674042999985,1561.6674042999985,1561.6674042999985,1561.6674042999985,1566.0207959,['l'],0,[4.336894399999437],[None],1566.0217470999996,1566.0498144000012,1566.0498144000012,1566.0498144000012,1572.3524672999993,4,6.314751499998238,4,6.314751499998238,,,,,,,,sub127_AB,001,2026-02-01_22h32.59.893,recognitionstage,,2025.1.1,59.84476268485802,2026-02-01 22h33.47.422069 +0530,
,,,1,1,0,24,frames\Vid24_BB_T.png,frames\Vid24_L.png,['l'],1,[2.4432554000013624],[None],5,2.3973849000030896,,,,,0,1,1,23,1572.4007416999993,,24,Male,Right handed,Normal,,,,,,,,,,,,,,,,,,,,,,,,,,,,,,,,,,,,,,,,1572.382800899999,1572.4007416999993,1572.4007416999993,1572.4007416999993,1572.4007416999993,1572.4007416999993,1572.4007416999993,1574.8545804999994,['l'],1,[2.4432554000013624],[None],1574.855672400001,1574.8682724999999,1574.8682724999999,1574.8682724999999,1577.2694765999986,5,2.3973849000030896,5,2.3973849000030896,,,,,,,,sub127_AB,001,2026-02-01_22h32.59.893,recognitionstage,,2025.1.1,59.84476268485802,2026-02-01 22h33.47.422069 +0530,
,,,2,2,0,5,frames\Vid5_EM_T.png,frames\Vid5_L.png,['r'],1,[4.96477589999995],[None],3,2.7155087999999523,,,,,0,2,2,4,1577.3194059999987,,24,Male,Right handed,Normal,,,,,,,,,,,,,,,,,,,,,,,,,,,,,,,,,,,,,,,,1577.2989487000013,1577.3194059999987,1577.3194059999987,1577.3194059999987,1577.3194059999987,1577.3194059999987,1577.3194059999987,1582.2876423000016,['r'],1,[4.96477589999995],[None],1582.2881712999988,1582.302075399999,1582.302075399999,1582.302075399999,1585.0189791000012,3,2.7155087999999523,3,2.7155087999999523,,,,,,,,sub127_AB,001,2026-02-01_22h32.59.893,recognitionstage,,2025.1.1,59.84476268485802,2026-02-01 22h33.47.422069 +0530,
,,,3,3,0,32,frames\Vid32_EM_T.png,frames\Vid32_L.png,['r'],1,[2.4787111000005098],[None],5,1.928346300002886,,,,,0,3,3,31,1585.0536365000007,,24,Male,Right handed,Normal,,,,,,,,,,,,,,,,,,,,,,,,,,,,,,,,,,,,,,,,1585.0308474999983,1585.0536365000007,1585.0536365000007,1585.0536365000007,1585.0536365000007,1585.0536365000007,1585.0536365000007,1587.5392235,['r'],1,[2.4787111000005098],[None],1587.5409166999998,1587.5667830999992,1587.5667830999992,1587.5667830999992,1589.4860618999992,5,1.928346300002886,5,1.928346300002886,,,,,,,,sub127_AB,001,2026-02-01_22h32.59.893,recognitionstage,,2025.1.1,59.84476268485802,2026-02-01 22h33.47.422069 +0530,
,,,4,4,0,18,frames\Vid18_EM_T.png,frames\Vid18_L.png,['l'],1,[2.453450700002577],[None],5,1.816301900002145,,,,,0,4,4,17,1589.5184711000002,,24,Male,Right handed,Normal,,,,,,,,,,,,,,,,,,,,,,,,,,,,,,,,,,,,,,,,1589.4965263000013,1589.5184711000002,1589.5184711000002,1589.5184711000002,1589.5184711000002,1589.5184711000002,1589.5184711000002,1591.9868521999997,['l'],1,[2.453450700002577],[None],1591.9876898000002,1592.0020073999985,1592.0020073999985,1592.0020073999985,1593.8195047000008,5,1.816301900002145,5,1.816301900002145,,,,,,,,sub127_AB,001,2026-02-01_22h32.59.893,recognitionstage,,2025.1.1,59.84476268485802,2026-02-01 22h33.47.422069 +0530,
,,,5,5,0,34,frames\Vid34_BB_T.png,frames\Vid34_L.png,['l'],1,[3.758545000000595],[None],4,2.3311734999988403,,,,,0,5,5,33,1593.8375535999985,,24,Male,Right handed,Normal,,,,,,,,,,,,,,,,,,,,,,,,,,,,,,,,,,,,,,,,1593.8288772999986,1593.8375535999985,1593.8375535999985,1593.8375535999985,1593.8375535999985,1593.8375535999985,1593.8375535999985,1597.6044293000014,['l'],1,[3.758545000000595],[None],1597.6053040000006,1597.618265000001,1597.618265000001,1597.618265000001,1599.9521838,4,2.3311734999988403,4,2.3311734999988403,,,,,,,,sub127_AB,001,2026-02-01_22h32.59.893,recognitionstage,,2025.1.1,59.84476268485802,2026-02-01 22h33.47.422069 +0530,
,,,6,6,0,36,frames\Vid36_BB_T.png,frames\Vid36_L.png,['l'],1,[3.1948417000021436],[None],5,1.7818452999999863,,,,,0,6,6,35,1599.9851124000015,,24,Male,Right handed,Normal,,,,,,,,,,,,,,,,,,,,,,,,,,,,,,,,,,,,,,,,1599.9640217999986,1599.9851124000015,1599.9851124000015,1599.9851124000015,1599.9851124000015,1599.9851124000015,1599.9851124000015,1603.186991300001,['l'],1,[3.1948417000021436],[None],1603.1880022000005,1603.2024996,1603.2024996,1603.2024996,1604.9856459000002,5,1.7818452999999863,5,1.7818452999999863,,,,,,,,sub127_AB,001,2026-02-01_22h32.59.893,recognitionstage,,2025.1.1,59.84476268485802,2026-02-01 22h33.47.422069 +0530,
,,,7,7,0,3,frames\Vid3_BB_T.png,frames\Vid3_L.png,['l'],1,[2.92811200000142],[None],5,1.9485486000012315,,,,,0,7,7,2,1605.0359910000006,,24,Male,Right handed,Normal,,,,,,,,,,,,,,,,,,,,,,,,,,,,,,,,,,,,,,,,1605.0250817999986,1605.0359910000006,1605.0359910000006,1605.0359910000006,1605.0359910000006,1605.0359910000006,1605.0359910000006,1607.9702856000004,['l'],1,[2.92811200000142],[None],1607.971257199999,1607.9854113000001,1607.9854113000001,1607.9854113000001,1609.935626999999,5,1.9485486000012315,5,1.9485486000012315,,,,,,,,sub127_AB,001,2026-02-01_22h32.59.893,recognitionstage,,2025.1.1,59.84476268485802,2026-02-01 22h33.47.422069 +0530,
,,,8,8,0,19,frames\Vid19_BB_T.png,frames\Vid19_L.png,['l'],1,[2.6889374000020325],[None],4,2.0160901000017475,,,,,0,8,8,18,1609.9710008000002,,24,Male,Right handed,Normal,,,,,,,,,,,,,,,,,,,,,,,,,,,,,,,,,,,,,,,,1609.9463127000017,1609.9710008000002,1609.9710008000002,1609.9710008000002,1609.9710008000002,1609.9710008000002,1609.9710008000002,1612.6698527000008,['l'],1,[2.6889374000020325],[None],1612.670573200001,1612.6854711000015,1612.6854711000015,1612.6854711000015,1614.702307399999,4,2.0160901000017475,4,2.0160901000017475,,,,,,,,sub127_AB,001,2026-02-01_22h32.59.893,recognitionstage,,2025.1.1,59.84476268485802,2026-02-01 22h33.47.422069 +0530,
,,,9,9,0,38,frames\Vid38_EM_T.png,frames\Vid38_L.png,['r'],1,[4.867776399998547],[None],3,2.4634365999991132,,,,,0,9,9,37,1614.7206633999995,,24,Male,Right handed,Normal,,,,,,,,,,,,,,,,,,,,,,,,,,,,,,,,,,,,,,,,1614.7126996000006,1614.7206633999995,1614.7206633999995,1614.7206633999995,1614.7206633999995,1614.7206633999995,1614.7206633999995,1619.6045589999994,['r'],1,[4.867776399998547],[None],1619.605929199999,1619.633374500001,1619.633374500001,1619.633374500001,1622.0861336999988,3,2.4634365999991132,3,2.4634365999991132,,,,,,,,sub127_AB,001,2026-02-01_22h32.59.893,recognitionstage,,2025.1.1,59.84476268485802,2026-02-01 22h33.47.422069 +0530,
,,,10,10,0,28,frames\Vid28_EM_T.png,frames\Vid28_L.png,['l'],1,[2.132605299997522],[None],5,2.0309025999995356,,,,,0,10,10,27,1622.1034040000013,,24,Male,Right handed,Normal,,,,,,,,,,,,,,,,,,,,,,,,,,,,,,,,,,,,,,,,1622.095229300001,1622.1034040000013,1622.1034040000013,1622.1034040000013,1622.1034040000013,1622.1034040000013,1622.1034040000013,1624.2373349000009,['l'],1,[2.132605299997522],[None],1624.2384200000015,1624.252002000001,1624.252002000001,1624.252002000001,1626.2860273000006,5,2.0309025999995356,5,2.0309025999995356,,,,,,,,sub127_AB,001,2026-02-01_22h32.59.893,recognitionstage,,2025.1.1,59.84476268485802,2026-02-01 22h33.47.422069 +0530,
,,,11,11,0,8,frames\Vid8_BB_T.png,frames\Vid8_L.png,['r'],1,[3.9241403999985778],[None],5,2.2295577000004414,,,,,0,11,11,7,1626.3358651999988,,24,Male,Right handed,Normal,,,,,,,,,,,,,,,,,,,,,,,,,,,,,,,,,,,,,,,,1626.3246752000014,1626.3358651999988,1626.3358651999988,1626.3358651999988,1626.3358651999988,1626.3358651999988,1626.3358651999988,1630.2713402000009,['r'],1,[3.9241403999985778],[None],1630.2730532999994,1630.285504899999,1630.285504899999,1630.285504899999,1632.5191505000003,5,2.2295577000004414,5,2.2295577000004414,,,,,,,,sub127_AB,001,2026-02-01_22h32.59.893,recognitionstage,,2025.1.1,59.84476268485802,2026-02-01 22h33.47.422069 +0530,
,,,12,12,0,11,frames\Vid11_EM_T.png,frames\Vid11_L.png,['l'],1,[2.7202214999997523],[None],5,1.6155452999992121,,,,,0,12,12,10,1632.571800900001,,24,Male,Right handed,Normal,,,,,,,,,,,,,,,,,,,,,,,,,,,,,,,,,,,,,,,,1632.5614969999988,1632.571800900001,1632.571800900001,1632.571800900001,1632.571800900001,1632.571800900001,1632.571800900001,1635.304009899999,['l'],1,[2.7202214999997523],[None],1635.3050968999996,1635.3187230000003,1635.3187230000003,1635.3187230000003,1636.935558699999,5,1.6155452999992121,5,1.6155452999992121,,,,,,,,sub127_AB,001,2026-02-01_22h32.59.893,recognitionstage,,2025.1.1,59.84476268485802,2026-02-01 22h33.47.422069 +0530,
,,,13,13,0,37,frames\Vid37_BB_T.png,frames\Vid37_L.png,['r'],1,[3.457501599998068],[None],5,2.2632092000021657,,,,,0,13,13,36,1636.9707870999991,,24,Male,Right handed,Normal,,,,,,,,,,,,,,,,,,,,,,,,,,,,,,,,,,,,,,,,1636.9471793000012,1636.9707870999991,1636.9707870999991,1636.9707870999991,1636.9707870999991,1636.9707870999991,1636.9707870999991,1640.437896200001,['r'],1,[3.457501599998068],[None],1640.4394051000017,1640.4524242000007,1640.4524242000007,1640.4524242000007,1642.7192834999987,5,2.2632092000021657,5,2.2632092000021657,,,,,,,,sub127_AB,001,2026-02-01_22h32.59.893,recognitionstage,,2025.1.1,59.84476268485802,2026-02-01 22h33.47.422069 +0530,
,,,14,14,0,21,frames\Vid21_BB_T.png,frames\Vid21_L.png,['l'],1,[3.084292600000481],[None],5,1.7479244000023755,,,,,0,14,14,20,1642.751583199999,,24,Male,Right handed,Normal,,,,,,,,,,,,,,,,,,,,,,,,,,,,,,,,,,,,,,,,1642.7306046000012,1642.751583199999,1642.751583199999,1642.751583199999,1642.751583199999,1642.751583199999,1642.751583199999,1645.8371560000014,['l'],1,[3.084292600000481],[None],1645.8379956999997,1645.8515511000005,1645.8515511000005,1645.8515511000005,1647.6027887000018,5,1.7479244000023755,5,1.7479244000023755,,,,,,,,sub127_AB,001,2026-02-01_22h32.59.893,recognitionstage,,2025.1.1,59.84476268485802,2026-02-01 22h33.47.422069 +0530,
,,,15,15,0,4,frames\Vid4_EM_T.png,frames\Vid4_L.png,['l'],0,[7.862620799998695],[None],3,1.7317126999987522,,,,,0,15,15,3,1647.6693215999985,,24,Male,Right handed,Normal,,,,,,,,,,,,,,,,,,,,,,,,,,,,,,,,,,,,,,,,1647.6466357999998,1647.6693215999985,1647.6693215999985,1647.6693215999985,1647.6693215999985,1647.6693215999985,1647.6693215999985,1655.5369180999987,['l'],0,[7.862620799998695],[None],1655.5378194000004,1655.5519706000014,1655.5519706000014,1655.5519706000014,1657.285628900001,3,1.7317126999987522,3,1.7317126999987522,,,,,,,,sub127_AB,001,2026-02-01_22h32.59.893,recognitionstage,,2025.1.1,59.84476268485802,2026-02-01 22h33.47.422069 +0530,
,,,16,16,0,25,frames\Vid25_BB_T.png,frames\Vid25_L.png,['l'],1,[3.777185200000531],[None],5,1.6153420000009646,,,,,0,16,16,24,1657.3067641000016,,24,Male,Right handed,Normal,,,,,,,,,,,,,,,,,,,,,,,,,,,,,,,,,,,,,,,,1657.2951754999995,1657.3067641000016,1657.3067641000016,1657.3067641000016,1657.3067641000016,1657.3067641000016,1657.3067641000016,1661.0869023999985,['l'],1,[3.777185200000531],[None],1661.087800100002,1661.1022773000004,1661.1022773000004,1661.1022773000004,1662.719533399999,5,1.6153420000009646,5,1.6153420000009646,,,,,,,,sub127_AB,001,2026-02-01_22h32.59.893,recognitionstage,,2025.1.1,59.84476268485802,2026-02-01 22h33.47.422069 +0530,
,,,17,17,0,33,frames\Vid33_BB_T.png,frames\Vid33_L.png,['r'],1,[2.810910899999726],[None],5,1.5640147999984038,,,,,0,17,17,32,1662.737198499999,,24,Male,Right handed,Normal,,,,,,,,,,,,,,,,,,,,,,,,,,,,,,,,,,,,,,,,1662.7295723999996,1662.737198499999,1662.737198499999,1662.737198499999,1662.737198499999,1662.737198499999,1662.737198499999,1665.554288700001,['r'],1,[2.810910899999726],[None],1665.5554583999983,1665.5688446999993,1665.5688446999993,1665.5688446999993,1667.1369927999986,5,1.5640147999984038,5,1.5640147999984038,,,,,,,,sub127_AB,001,2026-02-01_22h32.59.893,recognitionstage,,2025.1.1,59.84476268485802,2026-02-01 22h33.47.422069 +0530,
,,,18,18,0,26,frames\Vid26_EM_T.png,frames\Vid26_L.png,['r'],0,[3.4915188000013586],[None],3,4.3482105000002775,,,,,0,18,18,25,1667.1686023000002,,24,Male,Right handed,Normal,,,,,,,,,,,,,,,,,,,,,,,,,,,,,,,,,,,,,,,,1667.1529039999987,1667.1686023000002,1667.1686023000002,1667.1686023000002,1667.1686023000002,1667.1686023000002,1667.1686023000002,1670.6708848999988,['r'],0,[3.4915188000013586],[None],1670.6719832000017,1670.6856064999993,1670.6856064999993,1670.6856064999993,1675.0361540999984,3,4.3482105000002775,3,4.3482105000002775,,,,,,,,sub127_AB,001,2026-02-01_22h32.59.893,recognitionstage,,2025.1.1,59.84476268485802,2026-02-01 22h33.47.422069 +0530,
,,,19,19,0,30,frames\Vid30_EM_T.png,frames\Vid30_L.png,['r'],1,[5.583226700000523],[None],4,2.58047930000248,,,,,0,19,19,29,1675.0687337000018,,24,Male,Right handed,Normal,,,,,,,,,,,,,,,,,,,,,,,,,,,,,,,,,,,,,,,,1675.046622599999,1675.0687337000018,1675.0687337000018,1675.0687337000018,1675.0687337000018,1675.0687337000018,1675.0687337000018,1680.6549799999993,['r'],1,[5.583226700000523],[None],1680.6559549000012,1680.6684760999997,1680.6684760999997,1680.6684760999997,1683.2534129999985,4,2.58047930000248,4,2.58047930000248,,,,,,,,sub127_AB,001,2026-02-01_22h32.59.893,recognitionstage,,2025.1.1,59.84476268485802,2026-02-01 22h33.47.422069 +0530,
,,,20,20,0,16,frames\Vid16_EM_T.png,frames\Vid16_L.png,['r'],1,[5.581285399999615],[None],3,1.4474244000011822,,,,,0,20,20,15,1683.3026852000003,,24,Male,Right handed,Normal,,,,,,,,,,,,,,,,,,,,,,,,,,,,,,,,,,,,,,,,1683.2944349999998,1683.3026852000003,1683.3026852000003,1683.3026852000003,1683.3026852000003,1683.3026852000003,1683.3026852000003,1688.8877797999994,['r'],1,[5.581285399999615],[None],1688.888726699999,1688.9018336000008,1688.9018336000008,1688.9018336000008,1690.3528616000003,3,1.4474244000011822,3,1.4474244000011822,,,,,,,,sub127_AB,001,2026-02-01_22h32.59.893,recognitionstage,,2025.1.1,59.84476268485802,2026-02-01 22h33.47.422069 +0530,
,,,21,21,0,17,frames\Vid17_BB_T.png,frames\Vid17_L.png,['l'],0,[6.17566799999986],[None],2,3.7660767999987,,,,,0,21,21,16,1690.3883394000004,,24,Male,Right handed,Normal,,,,,,,,,,,,,,,,,,,,,,,,,,,,,,,,,,,,,,,,1690.3769471000014,1690.3883394000004,1690.3883394000004,1690.3883394000004,1690.3883394000004,1690.3883394000004,1690.3883394000004,1696.569518799999,['l'],0,[6.17566799999986],[None],1696.5702106999997,1696.5852393999994,1696.5852393999994,1696.5852393999994,1700.3528361999997,2,3.7660767999987,2,3.7660767999987,,,,,,,,sub127_AB,001,2026-02-01_22h32.59.893,recognitionstage,,2025.1.1,59.84476268485802,2026-02-01 22h33.47.422069 +0530,
,,,22,22,0,40,frames\Vid40_EM_T.png,frames\Vid40_L.png,['r'],1,[4.880166599999939],[None],5,1.5314510999996855,,,,,0,22,22,39,1700.371936200001,,24,Male,Right handed,Normal,,,,,,,,,,,,,,,,,,,,,,,,,,,,,,,,,,,,,,,,1700.3613210000003,1700.371936200001,1700.371936200001,1700.371936200001,1700.371936200001,1700.371936200001,1700.371936200001,1705.2533876999987,['r'],1,[4.880166599999939],[None],1705.2544502000019,1705.2686375999983,1705.2686375999983,1705.2686375999983,1706.8033901000017,5,1.5314510999996855,5,1.5314510999996855,,,,,,,,sub127_AB,001,2026-02-01_22h32.59.893,recognitionstage,,2025.1.1,59.84476268485802,2026-02-01 22h33.47.422069 +0530,
,,,23,23,0,12,frames\Vid12_EM_T.png,frames\Vid12_L.png,['r'],1,[2.6950743999987026],[None],5,1.2835353999980725,,,,,0,23,23,11,1706.8688489000015,,24,Male,Right handed,Normal,,,,,,,,,,,,,,,,,,,,,,,,,,,,,,,,,,,,,,,,1706.8493199000004,1706.8688489000015,1706.8688489000015,1706.8688489000015,1706.8688489000015,1706.8688489000015,1706.8688489000015,1709.5693494000006,['r'],1,[2.6950743999987026],[None],1709.569883600001,1709.5855058999987,1709.5855058999987,1709.5855058999987,1710.8692746000015,5,1.2835353999980725,5,1.2835353999980725,,,,,,,,sub127_AB,001,2026-02-01_22h32.59.893,recognitionstage,,2025.1.1,59.84476268485802,2026-02-01 22h33.47.422069 +0530,
,,,24,24,0,39,frames\Vid39_BB_T.png,frames\Vid39_L.png,['r'],0,[17.42589880000014],[None],3,1.265767599998071,,,,,0,24,24,38,1710.8901372,,24,Male,Right handed,Normal,,,,,,,,,,,,,,,,,,,,,,,,,,,,,,,,,,,,,,,,1710.8780019000005,1710.8901372,1710.8901372,1710.8901372,1710.8901372,1710.8901372,1710.8901372,1728.3202797000013,['r'],0,[17.42589880000014],[None],1728.3208793000013,1728.3354297000005,1728.3354297000005,1728.3354297000005,1729.6026606000014,3,1.265767599998071,3,1.265767599998071,,,,,,,,sub127_AB,001,2026-02-01_22h32.59.893,recognitionstage,,2025.1.1,59.84476268485802,2026-02-01 22h33.47.422069 +0530,
,,,25,25,0,20,frames\Vid20_EM_T.png,frames\Vid20_L.png,['l'],1,[2.231611100000009],[None],5,1.4983326000001398,,,,,0,25,25,19,1729.6204045000013,,24,Male,Right handed,Normal,,,,,,,,,,,,,,,,,,,,,,,,,,,,,,,,,,,,,,,,1729.611415200001,1729.6204045000013,1729.6204045000013,1729.6204045000013,1729.6204045000013,1729.6204045000013,1729.6204045000013,1731.8549709,['l'],1,[2.231611100000009],[None],1731.8560218999992,1731.868308600002,1731.868308600002,1731.868308600002,1733.3691536000006,5,1.4983326000001398,5,1.4983326000001398,,,,,,,,sub127_AB,001,2026-02-01_22h32.59.893,recognitionstage,,2025.1.1,59.84476268485802,2026-02-01 22h33.47.422069 +0530,
,,,26,26,0,22,frames\Vid22_EM_T.png,frames\Vid22_L.png,['l'],1,[2.3309545000010985],[None],5,1.7156458999997994,,,,,0,26,26,21,1733.4016211999988,,24,Male,Right handed,Normal,,,,,,,,,,,,,,,,,,,,,,,,,,,,,,,,,,,,,,,,1733.3823316000016,1733.4016211999988,1733.4016211999988,1733.4016211999988,1733.4016211999988,1733.4016211999988,1733.4016211999988,1735.7373860000007,['l'],1,[2.3309545000010985],[None],1735.7384066999984,1735.7520349000006,1735.7520349000006,1735.7520349000006,1737.4692691000018,5,1.7156458999997994,5,1.7156458999997994,,,,,,,,sub127_AB,001,2026-02-01_22h32.59.893,recognitionstage,,2025.1.1,59.84476268485802,2026-02-01 22h33.47.422069 +0530,
,,,27,27,0,9,frames\Vid9_EM_T.png,frames\Vid9_L.png,['r'],1,[3.0368974000011804],[None],5,1.9469231000002765,,,,,0,27,27,8,1737.5190628000018,,24,Male,Right handed,Normal,,,,,,,,,,,,,,,,,,,,,,,,,,,,,,,,,,,,,,,,1737.5069551999986,1737.5190628000018,1737.5190628000018,1737.5190628000018,1737.5190628000018,1737.5190628000018,1737.5190628000018,1740.5710603000007,['r'],1,[3.0368974000011804],[None],1740.5723426000004,1740.5849791,1740.5849791,1740.5849791,1742.5366515999995,5,1.9469231000002765,5,1.9469231000002765,,,,,,,,sub127_AB,001,2026-02-01_22h32.59.893,recognitionstage,,2025.1.1,59.84476268485802,2026-02-01 22h33.47.422069 +0530,
,,,28,28,0,1,frames\Vid1_EM_T.png,frames\Vid1_L.png,['l'],1,[2.855154400000174],[None],5,1.5978011000006518,,,,,0,28,28,0,1742.6049090999986,,24,Male,Right handed,Normal,,,,,,,,,,,,,,,,,,,,,,,,,,,,,,,,,,,,,,,,1742.5936409999995,1742.6049090999986,1742.6049090999986,1742.6049090999986,1742.6049090999986,1742.6049090999986,1742.6049090999986,1745.4706828000017,['l'],1,[2.855154400000174],[None],1745.4714138999989,1745.485543400002,1745.485543400002,1745.485543400002,1747.0866852,5,1.5978011000006518,5,1.5978011000006518,,,,,,,,sub127_AB,001,2026-02-01_22h32.59.893,recognitionstage,,2025.1.1,59.84476268485802,2026-02-01 22h33.47.422069 +0530,
,,,29,29,0,35,frames\Vid35_EM_T.png,frames\Vid35_L.png,['r'],1,[3.1864450000030047],[None],5,1.865014399998472,,,,,0,29,29,34,1747.1215453000004,,24,Male,Right handed,Normal,,,,,,,,,,,,,,,,,,,,,,,,,,,,,,,,,,,,,,,,1747.1008151999995,1747.1215453000004,1747.1215453000004,1747.1215453000004,1747.1215453000004,1747.1215453000004,1747.1215453000004,1750.320049500002,['r'],1,[3.1864450000030047],[None],1750.321025000001,1750.3355484999993,1750.3355484999993,1750.3355484999993,1752.2033936000007,5,1.865014399998472,5,1.865014399998472,,,,,,,,sub127_AB,001,2026-02-01_22h32.59.893,recognitionstage,,2025.1.1,59.84476268485802,2026-02-01 22h33.47.422069 +0530,
,,,30,30,0,23,frames\Vid23_EM_T.png,frames\Vid23_L.png,['r'],1,[1.9924568999995245],[None],5,0.9985186999983853,,,,,0,30,30,22,1752.2353995000012,,24,Male,Right handed,Normal,,,,,,,,,,,,,,,,,,,,,,,,,,,,,,,,,,,,,,,,1752.219737200001,1752.2353995000012,1752.2353995000012,1752.2353995000012,1752.2353995000012,1752.2353995000012,1752.2353995000012,1754.2366103999993,['r'],1,[1.9924568999995245],[None],1754.2375816999993,1754.2520050999992,1754.2520050999992,1754.2520050999992,1755.2534516999985,5,0.9985186999983853,5,0.9985186999983853,,,,,,,,sub127_AB,001,2026-02-01_22h32.59.893,recognitionstage,,2025.1.1,59.84476268485802,2026-02-01 22h33.47.422069 +0530,
,,,31,31,0,14,frames\Vid14_BB_T.png,frames\Vid14_L.png,['r'],1,[10.8205655999991],[None],2,2.9826687999993737,,,,,0,31,31,13,1755.3193046000015,,24,Male,Right handed,Normal,,,,,,,,,,,,,,,,,,,,,,,,,,,,,,,,,,,,,,,,1755.299470500002,1755.3193046000015,1755.3193046000015,1755.3193046000015,1755.3193046000015,1755.3193046000015,1755.3193046000015,1766.1536496000008,['r'],1,[10.8205655999991],[None],1766.1545736000007,1766.1685459,1766.1685459,1766.1685459,1769.152410300001,2,2.9826687999993737,2,2.9826687999993737,,,,,,,,sub127_AB,001,2026-02-01_22h32.59.893,recognitionstage,,2025.1.1,59.84476268485802,2026-02-01 22h33.47.422069 +0530,
,,,32,32,0,10,frames\Vid10_BB_T.png,frames\Vid10_L.png,['l'],1,[3.3181644000032975],[None],4,2.064702400002716,,,,,0,32,32,9,1769.2217085000011,,24,Male,Right handed,Normal,,,,,,,,,,,,,,,,,,,,,,,,,,,,,,,,,,,,,,,,1769.2010087999988,1769.2217085000011,1769.2217085000011,1769.2217085000011,1769.2217085000011,1769.2217085000011,1769.2217085000011,1772.553915200002,['l'],1,[3.3181644000032975],[None],1772.5549275999983,1772.5687857000012,1772.5687857000012,1772.5687857000012,1774.636165,4,2.064702400002716,4,2.064702400002716,,,,,,,,sub127_AB,001,2026-02-01_22h32.59.893,recognitionstage,,2025.1.1,59.84476268485802,2026-02-01 22h33.47.422069 +0530,
,,,33,33,0,6,frames\Vid6_BB_T.png,frames\Vid6_L.png,['l'],1,[3.5063255999994],[None],5,1.6988154999999097,,,,,0,33,33,5,1774.7057878999985,,24,Male,Right handed,Normal,,,,,,,,,,,,,,,,,,,,,,,,,,,,,,,,,,,,,,,,1774.691013399999,1774.7057878999985,1774.7057878999985,1774.7057878999985,1774.7057878999985,1774.7057878999985,1774.7057878999985,1778.2208735999993,['l'],1,[3.5063255999994],[None],1778.221848699999,1778.2349633000013,1778.2349633000013,1778.2349633000013,1779.9361156999985,5,1.6988154999999097,5,1.6988154999999097,,,,,,,,sub127_AB,001,2026-02-01_22h32.59.893,recognitionstage,,2025.1.1,59.84476268485802,2026-02-01 22h33.47.422069 +0530,
,,,34,34,0,15,frames\Vid15_BB_T.png,frames\Vid15_L.png,['r'],1,[2.6455143999992288],[None],5,1.1316772999998648,,,,,0,34,34,14,1780.0063099,,24,Male,Right handed,Normal,,,,,,,,,,,,,,,,,,,,,,,,,,,,,,,,,,,,,,,,1779.985523700001,1780.0063099,1780.0063099,1780.0063099,1780.0063099,1780.0063099,1780.0063099,1782.6545490999997,['r'],1,[2.6455143999992288],[None],1782.6555799000016,1782.668472199999,1782.668472199999,1782.668472199999,1783.802867800001,5,1.1316772999998648,5,1.1316772999998648,,,,,,,,sub127_AB,001,2026-02-01_22h32.59.893,recognitionstage,,2025.1.1,59.84476268485802,2026-02-01 22h33.47.422069 +0530,
,,,35,35,0,7,frames\Vid7_EM_T.png,frames\Vid7_L.png,['l'],1,[6.956126299999596],[None],5,1.749145400000998,,,,,0,35,35,6,1783.8717843999984,,24,Male,Right handed,Normal,,,,,,,,,,,,,,,,,,,,,,,,,,,,,,,,,,,,,,,,1783.8567393999983,1783.8717843999984,1783.8717843999984,1783.8717843999984,1783.8717843999984,1783.8717843999984,1783.8717843999984,1790.836951100002,['l'],1,[6.956126299999596],[None],1790.8378942000018,1790.8521599999985,1790.8521599999985,1790.8521599999985,1792.6027533999986,5,1.749145400000998,5,1.749145400000998,,,,,,,,sub127_AB,001,2026-02-01_22h32.59.893,recognitionstage,,2025.1.1,59.84476268485802,2026-02-01 22h33.47.422069 +0530,
,,,36,36,0,27,frames\Vid27_BB_T.png,frames\Vid27_L.png,['l'],1,[4.0137190999994345],[None],5,2.015897799999948,,,,,0,36,36,26,1792.6380390000013,,24,Male,Right handed,Normal,,,,,,,,,,,,,,,,,,,,,,,,,,,,,,,,,,,,,,,,1792.6137817999988,1792.6380390000013,1792.6380390000013,1792.6380390000013,1792.6380390000013,1792.6380390000013,1792.6380390000013,1796.6530088,['l'],1,[4.0137190999994345],[None],1796.6535246999993,1796.6683979000009,1796.6683979000009,1796.6683979000009,1798.6867939000003,5,2.015897799999948,5,2.015897799999948,,,,,,,,sub127_AB,001,2026-02-01_22h32.59.893,recognitionstage,,2025.1.1,59.84476268485802,2026-02-01 22h33.47.422069 +0530,
,,,37,37,0,31,frames\Vid31_EM_T.png,frames\Vid31_L.png,['r'],1,[1.9576343999979144],[None],5,1.382380800001556,,,,,0,37,37,30,1798.7182355000004,,24,Male,Right handed,Normal,,,,,,,,,,,,,,,,,,,,,,,,,,,,,,,,,,,,,,,,1798.6965065000004,1798.7182355000004,1798.7182355000004,1798.7182355000004,1798.7182355000004,1798.7182355000004,1798.7182355000004,1800.6868178000004,['r'],1,[1.9576343999979144],[None],1800.6875134000002,1800.7023112999996,1800.7023112999996,1800.7023112999996,1802.0861936000001,5,1.382380800001556,5,1.382380800001556,,,,,,,,sub127_AB,001,2026-02-01_22h32.59.893,recognitionstage,,2025.1.1,59.84476268485802,2026-02-01 22h33.47.422069 +0530,
,,,38,38,0,2,frames\Vid2_BB_T.png,frames\Vid2_L.png,['r'],1,[3.412058000001707],[None],5,1.3472940000028757,,,,,0,38,38,1,1802.152017100001,,24,Male,Right handed,Normal,,,,,,,,,,,,,,,,,,,,,,,,,,,,,,,,,,,,,,,,1802.1296097000013,1802.152017100001,1802.152017100001,1802.152017100001,1802.152017100001,1802.152017100001,1802.152017100001,1805.5710309999995,['r'],1,[3.412058000001707],[None],1805.5724188999993,1805.5851485999992,1805.5851485999992,1805.5851485999992,1806.9366579999987,5,1.3472940000028757,5,1.3472940000028757,,,,,,,,sub127_AB,001,2026-02-01_22h32.59.893,recognitionstage,,2025.1.1,59.84476268485802,2026-02-01 22h33.47.422069 +0530,
,,,39,39,0,29,frames\Vid29_BB_T.png,frames\Vid29_L.png,['l'],1,[2.688543899999786],[None],5,1.2813373999997566,,,,,0,39,39,28,1806.9714453999986,,24,Male,Right handed,Normal,,,,,,,,,,,,,,,,,,,,,,,,,,,,,,,,,,,,,,,,1806.950800900002,1806.9714453999986,1806.9714453999986,1806.9714453999986,1806.9714453999986,1806.9714453999986,1806.9714453999986,1809.6706376000002,['l'],1,[2.688543899999786],[None],1809.6715771999989,1809.6854715000009,1809.6854715000009,1809.6854715000009,1810.9692117000013,5,1.2813373999997566,5,1.2813373999997566,,,,,,,,sub127_AB,001,2026-02-01_22h32.59.893,recognitionstage,,2025.1.1,59.84476268485802,2026-02-01 22h33.47.422069 +0530,
,,,,,,,,,,,,,,,,,,,,,,,,,24,Male,Right handed,Normal,,,,,,,,,,,,,,,,,,,,,,,,,,,,,,,,,,,,,,,,,,,,,,,,,,,,,,,,,,,,,1810.9693183000018,1810.9871239999993,1810.9871239999993,1818.3541286,space,7.352759500001412,None,sub127_AB,001,2026-02-01_22h32.59.893,recognitionstage,,2025.1.1,59.84476268485802,2026-02-01 22h33.47.422069 +0530,
