path,duration,is_repeat,thisN,thisTrialN,thisRepN,movie_id,target_img,lure_img,resp.keys,resp.corr,resp.rt,resp.duration,conf_radio.response,conf_radio.rt,movie.thisRepN,movie.thisTrialN,movie.thisN,movie.thisIndex,recogloop.thisRepN,recogloop.thisTrialN,recogloop.thisN,recogloop.thisIndex,thisRow.t,notes,age,gender,handedness,vision,caffeine_2h,alcohol_smoke_12h,demographics.started,demographics.stopped,Instructions.started,text1.started,key_resp.started,Instructions.stopped,key_resp.keys,key_resp.rt,key_resp.duration,instruction_2.started,text2.started,key_resp_2.started,instruction_2.stopped,key_resp_2.keys,key_resp_2.rt,key_resp_2.duration,Videos.started,movie_2.started,vigilance_resp.started,movie_2.stopped,Videos.stopped,movie.vigilance_resp.keys,vigilance_pressed,vigilance_correct,ISI.started,text.started,ISI.stopped,text.stopped,movie.vigilance_resp.rt,movie.vigilance_resp.duration,recognition.started,text_4.started,key_resp_3.started,recognition.stopped,key_resp_3.keys,key_resp_3.rt,key_resp_3.duration,recognition_task.started,leftimage.started,rightimage.started,resp.started,frames_question.started,right_label.started,left_label.started,recognition_task.stopped,recogloop.resp.keys,recogloop.resp.corr,recogloop.resp.rt,recogloop.resp.duration,confidence.started,conf_text.started,conf_radio.started,conf_label.started,confidence.stopped,recogloop.conf_radio.response,recogloop.conf_radio.rt,confidence,confidence_rt,thank_you.started,text_6.started,key_resp_4.started,thank_you.stopped,key_resp_4.keys,participant,session,date,expName,expVersion,psychopyVersion,frameRate,expStart,...103
,,,,,,,,,,,,,,,,,,,,,,,,,23,Male,Right handed,Normal,Caffeine consumed in last 2 hours?,Alcohol or smoking in last 12 hours?,0.01001259998884052,0.012455399992177263,,,,,,,,,,,,,,,,,,,,,,,,,,,,,,,,,,,,,,,,,,,,,,,,,,,,,,,,,,,,,,sub171_NB,001,2026-02-03_23h11.51.031,recognitionstage,,2025.1.1,59.72738035174004,2026-02-03 23h12.49.509753 +0530,
,,,,,,,,,,,,,,,,,,,,,,,,,23,Male,Right handed,Normal,,,,,0.01247670000884682,0.028981999988900498,0.028981999988900498,13.181343800009927,space,13.151489200012293,None,,,,,,,,,,,,,,,,,,,,,,,,,,,,,,,,,,,,,,,,,,,,,,,,,,,,,,,sub171_NB,001,2026-02-03_23h11.51.031,recognitionstage,,2025.1.1,59.72738035174004,2026-02-03 23h12.49.509753 +0530,
,,,,,,,,,,,,,,,,,,,,,,,,,23,Male,Right handed,Normal,,,,,,,,,,,,13.181430700002238,13.196322600007989,13.196322600007989,29.11467779998202,space,15.912230500020087,None,,,,,,,,,,,,,,,,,,,,,,,,,,,,,,,,,,,,,,,,,,,,,,,,sub171_NB,001,2026-02-03_23h11.51.031,recognitionstage,,2025.1.1,59.72738035174004,2026-02-03 23h12.49.509753 +0530,
Trimmed_videos/natural_18.mp4,24,1,44,44,0,,,,,,,,,,0,44,44,20,,,,,1546.0278920999845,,23,Male,Right handed,Normal,,,,,,,,,,,,,,,,,,,1545.979370999994,1546.0278920999845,1546.0278920999845,1529.1277995999844,1548.2137445999833,space,1,1,1548.3467470000032,1548.3608068999893,1550.8480621000053,1546.0278920999845,2.1757714999839664,None,1550.8481830999954,1550.862586000003,1550.862586000003,1587.5466364999884,space,36.66910700002336,None,,,,,,,,,,,,,,,,,,,,,,,,,,,sub171_NB,001,2026-02-03_23h11.51.031,recognitionstage,,2025.1.1,59.72738035174004,2026-02-03 23h12.49.509753 +0530,
,,,0,0,0,32,frames\Vid32_EM_T.png,frames\Vid32_L.png,['l'],1,[3.6988292999740224],[None],5,7.113862300000619,,,,,0,0,0,31,1587.5769615999889,,23,Male,Right handed,Normal,,,,,,,,,,,,,,,,,,,,,,,,,,,,,,,,,,,,,,,,1587.5642420999939,1587.5769615999889,1587.5769615999889,1587.5769615999889,1587.5769615999889,1587.5769615999889,1587.5769615999889,1591.2807811000093,['l'],1,[3.6988292999740224],[None],1591.2821665999945,1591.3098504999944,1591.3098504999944,1591.3098504999944,1598.4126609000086,5,7.113862300000619,5,7.113862300000619,,,,,,sub171_NB,001,2026-02-03_23h11.51.031,recognitionstage,,2025.1.1,59.72738035174004,2026-02-03 23h12.49.509753 +0530,
,,,1,1,0,34,frames\Vid34_BB_T.png,frames\Vid34_L.png,['l'],1,[7.256093800009694],[None],5,2.214317800011486,,,,,0,1,1,33,1598.4437442999915,,23,Male,Right handed,Normal,,,,,,,,,,,,,,,,,,,,,,,,,,,,,,,,,,,,,,,,1598.4285345999815,1598.4437442999915,1598.4437442999915,1598.4437442999915,1598.4437442999915,1598.4437442999915,1598.4437442999915,1605.714331700001,['l'],1,[7.256093800009694],[None],1605.715723900008,1605.7286068999965,1605.7286068999965,1605.7286068999965,1607.9457363999973,5,2.214317800011486,5,2.214317800011486,,,,,,sub171_NB,001,2026-02-03_23h11.51.031,recognitionstage,,2025.1.1,59.72738035174004,2026-02-03 23h12.49.509753 +0530,
,,,2,2,0,23,frames\Vid23_EM_T.png,frames\Vid23_L.png,['l'],1,[8.90544289999525],[None],5,1.9298875000094995,,,,,0,2,2,22,1607.9783373999817,,23,Male,Right handed,Normal,,,,,,,,,,,,,,,,,,,,,,,,,,,,,,,,,,,,,,,,1607.9609014999878,1607.9783373999817,1607.9783373999817,1607.9783373999817,1607.9783373999817,1607.9783373999817,1607.9783373999817,1616.8985214999993,['l'],1,[8.90544289999525],[None],1616.899653200002,1616.911541199981,1616.911541199981,1616.911541199981,1618.8455308999983,5,1.9298875000094995,5,1.9298875000094995,,,,,,sub171_NB,001,2026-02-03_23h11.51.031,recognitionstage,,2025.1.1,59.72738035174004,2026-02-03 23h12.49.509753 +0530,
,,,3,3,0,35,frames\Vid35_EM_T.png,frames\Vid35_L.png,['r'],0,[6.821521799982293],[None],4,1.7976771000248846,,,,,0,3,3,34,1618.878215100005,,23,Male,Right handed,Normal,,,,,,,,,,,,,,,,,,,,,,,,,,,,,,,,,,,,,,,,1618.8563258000067,1618.878215100005,1618.878215100005,1618.878215100005,1618.878215100005,1618.878215100005,1618.878215100005,1625.7137676999846,['r'],0,[6.821521799982293],[None],1625.7148127999972,1625.728522099991,1625.728522099991,1625.728522099991,1627.5300923000032,4,1.7976771000248846,4,1.7976771000248846,,,,,,sub171_NB,001,2026-02-03_23h11.51.031,recognitionstage,,2025.1.1,59.72738035174004,2026-02-03 23h12.49.509753 +0530,
,,,4,4,0,16,frames\Vid16_EM_T.png,frames\Vid16_L.png,['r'],1,[8.880965099990135],[None],3,7.480274800007464,,,,,0,4,4,15,1627.578903799993,,23,Male,Right handed,Normal,,,,,,,,,,,,,,,,,,,,,,,,,,,,,,,,,,,,,,,,1627.5712185000011,1627.578903799993,1627.578903799993,1627.578903799993,1627.578903799993,1627.578903799993,1627.578903799993,1636.4646849999845,['r'],1,[8.880965099990135],[None],1636.465723900008,1636.4779101999884,1636.4779101999884,1636.4779101999884,1643.9630701999995,3,7.480274800007464,3,7.480274800007464,,,,,,sub171_NB,001,2026-02-03_23h11.51.031,recognitionstage,,2025.1.1,59.72738035174004,2026-02-03 23h12.49.509753 +0530,
,,,5,5,0,26,frames\Vid26_EM_T.png,frames\Vid26_L.png,['r'],1,[2.209150699985912],[None],5,1.2653279000078328,,,,,0,5,5,25,1644.01039879999,,23,Male,Right handed,Normal,,,,,,,,,,,,,,,,,,,,,,,,,,,,,,,,,,,,,,,,1643.99082549999,1644.01039879999,1644.01039879999,1644.01039879999,1644.01039879999,1644.01039879999,1644.01039879999,1646.2299049999856,['r'],1,[2.209150699985912],[None],1646.2306061999989,1646.244525599992,1646.244525599992,1646.244525599992,1647.5120296999812,5,1.2653279000078328,5,1.2653279000078328,,,,,,sub171_NB,001,2026-02-03_23h11.51.031,recognitionstage,,2025.1.1,59.72738035174004,2026-02-03 23h12.49.509753 +0530,
,,,6,6,0,39,frames\Vid39_BB_T.png,frames\Vid39_L.png,['l'],1,[4.921124600019539],[None],5,5.266090399993118,,,,,0,6,6,38,1647.5304648999881,,23,Male,Right handed,Normal,,,,,,,,,,,,,,,,,,,,,,,,,,,,,,,,,,,,,,,,1647.5201583000016,1647.5304648999881,1647.5304648999881,1647.5304648999881,1647.5304648999881,1647.5304648999881,1647.5304648999881,1652.4635990000097,['l'],1,[4.921124600019539],[None],1652.4644720999931,1652.4780037000019,1652.4780037000019,1652.4780037000019,1657.7457487999927,5,5.266090399993118,5,5.266090399993118,,,,,,sub171_NB,001,2026-02-03_23h11.51.031,recognitionstage,,2025.1.1,59.72738035174004,2026-02-03 23h12.49.509753 +0530,
,,,7,7,0,12,frames\Vid12_EM_T.png,frames\Vid12_L.png,['l'],1,[8.791768199997023],[None],3,1.4498632999893744,,,,,0,7,7,11,1657.8118383999972,,23,Male,Right handed,Normal,,,,,,,,,,,,,,,,,,,,,,,,,,,,,,,,,,,,,,,,1657.7893553999893,1657.8118383999972,1657.8118383999972,1657.8118383999972,1657.8118383999972,1657.8118383999972,1657.8118383999972,1666.6125961999933,['l'],1,[8.791768199997023],[None],1666.6133384999994,1666.6284328000038,1666.6284328000038,1666.6284328000038,1668.079009899986,3,1.4498632999893744,3,1.4498632999893744,,,,,,sub171_NB,001,2026-02-03_23h11.51.031,recognitionstage,,2025.1.1,59.72738035174004,2026-02-03 23h12.49.509753 +0530,
,,,8,8,0,14,frames\Vid14_BB_T.png,frames\Vid14_L.png,['r'],1,[4.631668299989542],[None],3,1.5975114000029862,,,,,0,8,8,13,1668.1481031999865,,23,Male,Right handed,Normal,,,,,,,,,,,,,,,,,,,,,,,,,,,,,,,,,,,,,,,,1668.1256671999872,1668.1481031999865,1668.1481031999865,1668.1481031999865,1668.1481031999865,1668.1481031999865,1668.1481031999865,1672.7974417000078,['r'],1,[4.631668299989542],[None],1672.7987161999918,1672.811235900008,1672.811235900008,1672.811235900008,1674.411905099987,3,1.5975114000029862,3,1.5975114000029862,,,,,,sub171_NB,001,2026-02-03_23h11.51.031,recognitionstage,,2025.1.1,59.72738035174004,2026-02-03 23h12.49.509753 +0530,
,,,9,9,0,21,frames\Vid21_BB_T.png,frames\Vid21_L.png,['r'],1,[9.036080399993807],[None],4,1.2308435999730136,,,,,0,9,9,20,1674.447536199994,,23,Male,Right handed,Normal,,,,,,,,,,,,,,,,,,,,,,,,,,,,,,,,,,,,,,,,1674.4243044999894,1674.447536199994,1674.447536199994,1674.447536199994,1674.447536199994,1674.447536199994,1674.447536199994,1683.4971044999838,['r'],1,[9.036080399993807],[None],1683.4980906999845,1683.5112089999893,1683.5112089999893,1683.5112089999893,1684.7455053000012,4,1.2308435999730136,4,1.2308435999730136,,,,,,sub171_NB,001,2026-02-03_23h11.51.031,recognitionstage,,2025.1.1,59.72738035174004,2026-02-03 23h12.49.509753 +0530,
,,,10,10,0,36,frames\Vid36_BB_T.png,frames\Vid36_L.png,['r'],1,[2.7136049999971874],[None],5,1.6815353999845684,,,,,0,10,10,35,1684.778147999983,,23,Male,Right handed,Normal,,,,,,,,,,,,,,,,,,,,,,,,,,,,,,,,,,,,,,,,1684.7568657000083,1684.778147999983,1684.778147999983,1684.778147999983,1684.778147999983,1684.778147999983,1684.778147999983,1687.497019100003,['r'],1,[2.7136049999971874],[None],1687.4981196000008,1687.5112938999955,1687.5112938999955,1687.5112938999955,1689.196033699991,5,1.6815353999845684,5,1.6815353999845684,,,,,,sub171_NB,001,2026-02-03_23h11.51.031,recognitionstage,,2025.1.1,59.72738035174004,2026-02-03 23h12.49.509753 +0530,
,,,11,11,0,5,frames\Vid5_EM_T.png,frames\Vid5_L.png,['l'],1,[4.134288500004914],[None],4,4.146941999992123,,,,,0,11,11,4,1689.2453951000061,,23,Male,Right handed,Normal,,,,,,,,,,,,,,,,,,,,,,,,,,,,,,,,,,,,,,,,1689.2249332999927,1689.2453951000061,1689.2453951000061,1689.2453951000061,1689.2453951000061,1689.2453951000061,1689.2453951000061,1693.3976361000095,['l'],1,[4.134288500004914],[None],1693.3989580000052,1693.4268449000083,1693.4268449000083,1693.4268449000083,1697.5618941999855,4,4.146941999992123,4,4.146941999992123,,,,,,sub171_NB,001,2026-02-03_23h11.51.031,recognitionstage,,2025.1.1,59.72738035174004,2026-02-03 23h12.49.509753 +0530,
,,,12,12,0,11,frames\Vid11_EM_T.png,frames\Vid11_L.png,['l'],1,[3.1255606000195257],[None],5,1.382405500015011,,,,,0,12,12,10,1697.6140549999836,,23,Male,Right handed,Normal,,,,,,,,,,,,,,,,,,,,,,,,,,,,,,,,,,,,,,,,1697.6033966999967,1697.6140549999836,1697.6140549999836,1697.6140549999836,1697.6140549999836,1697.6140549999836,1697.6140549999836,1700.7463635999884,['l'],1,[3.1255606000195257],[None],1700.7471170999925,1700.7617290999915,1700.7617290999915,1700.7617290999915,1702.1454037000076,5,1.382405500015011,5,1.382405500015011,,,,,,sub171_NB,001,2026-02-03_23h11.51.031,recognitionstage,,2025.1.1,59.72738035174004,2026-02-03 23h12.49.509753 +0530,
,,,13,13,0,1,frames\Vid1_EM_T.png,frames\Vid1_L.png,['r'],1,[11.061265700001968],[None],3,1.597300900000846,,,,,0,13,13,0,1702.2144367999863,,23,Male,Right handed,Normal,,,,,,,,,,,,,,,,,,,,,,,,,,,,,,,,,,,,,,,,1702.1914479999978,1702.2144367999863,1702.2144367999863,1702.2144367999863,1702.2144367999863,1702.2144367999863,1702.2144367999863,1713.2805737000017,['r'],1,[11.061265700001968],[None],1713.2816259999818,1713.2949468999868,1713.2949468999868,1713.2949468999868,1714.895810499991,3,1.597300900000846,3,1.597300900000846,,,,,,sub171_NB,001,2026-02-03_23h11.51.031,recognitionstage,,2025.1.1,59.72738035174004,2026-02-03 23h12.49.509753 +0530,
,,,14,14,0,13,frames\Vid13_BB_T.png,frames\Vid13_L.png,['r'],1,[4.079235799988965],[None],4,1.280794699996477,,,,,0,14,14,12,1714.9483967999986,,23,Male,Right handed,Normal,,,,,,,,,,,,,,,,,,,,,,,,,,,,,,,,,,,,,,,,1714.930260699999,1714.9483967999986,1714.9483967999986,1714.9483967999986,1714.9483967999986,1714.9483967999986,1714.9483967999986,1719.030474500003,['r'],1,[4.079235799988965],[None],1719.031287299993,1719.0445566999842,1719.0445566999842,1719.0445566999842,1720.3290424000006,4,1.280794699996477,4,1.280794699996477,,,,,,sub171_NB,001,2026-02-03_23h11.51.031,recognitionstage,,2025.1.1,59.72738035174004,2026-02-03 23h12.49.509753 +0530,
,,,15,15,0,37,frames\Vid37_BB_T.png,frames\Vid37_L.png,['r'],1,[3.2236472999793477],[None],5,2.0487219000060577,,,,,0,15,15,36,1720.3639252999856,,23,Male,Right handed,Normal,,,,,,,,,,,,,,,,,,,,,,,,,,,,,,,,,,,,,,,,1720.3424192999955,1720.3639252999856,1720.3639252999856,1720.3639252999856,1720.3639252999856,1720.3639252999856,1720.3639252999856,1723.5966092000017,['r'],1,[3.2236472999793477],[None],1723.5975542000087,1723.612165700004,1723.612165700004,1723.612165700004,1725.6619980999967,5,2.0487219000060577,5,2.0487219000060577,,,,,,sub171_NB,001,2026-02-03_23h11.51.031,recognitionstage,,2025.1.1,59.72738035174004,2026-02-03 23h12.49.509753 +0530,
,,,16,16,0,6,frames\Vid6_BB_T.png,frames\Vid6_L.png,['l'],1,[3.891229000000749],[None],3,0.8977028999943286,,,,,0,16,16,5,1725.7123594000004,,23,Male,Right handed,Normal,,,,,,,,,,,,,,,,,,,,,,,,,,,,,,,,,,,,,,,,1725.7034850000055,1725.7123594000004,1725.7123594000004,1725.7123594000004,1725.7123594000004,1725.7123594000004,1725.7123594000004,1729.6136862999992,['l'],1,[3.891229000000749],[None],1729.6147046999831,1729.6286988999927,1729.6286988999927,1729.6286988999927,1730.529372399993,3,0.8977028999943286,3,0.8977028999943286,,,,,,sub171_NB,001,2026-02-03_23h11.51.031,recognitionstage,,2025.1.1,59.72738035174004,2026-02-03 23h12.49.509753 +0530,
,,,17,17,0,25,frames\Vid25_BB_T.png,frames\Vid25_L.png,['r'],0,[8.375194400025066],[None],2,1.1142462999850977,,,,,0,17,17,24,1730.5646455999813,,23,Male,Right handed,Normal,,,,,,,,,,,,,,,,,,,,,,,,,,,,,,,,,,,,,,,,1730.5399307000043,1730.5646455999813,1730.5646455999813,1730.5646455999813,1730.5646455999813,1730.5646455999813,1730.5646455999813,1738.947913699987,['r'],0,[8.375194400025066],[None],1738.9489560000075,1738.9769293999998,1738.9769293999998,1738.9769293999998,1740.0784540000022,2,1.1142462999850977,2,1.1142462999850977,,,,,,sub171_NB,001,2026-02-03_23h11.51.031,recognitionstage,,2025.1.1,59.72738035174004,2026-02-03 23h12.49.509753 +0530,
,,,18,18,0,20,frames\Vid20_EM_T.png,frames\Vid20_L.png,['l'],1,[2.7629359000129625],[None],4,1.580418900004588,,,,,0,18,18,19,1740.096781900007,,23,Male,Right handed,Normal,,,,,,,,,,,,,,,,,,,,,,,,,,,,,,,,,,,,,,,,1740.0847145000007,1740.096781900007,1740.096781900007,1740.096781900007,1740.096781900007,1740.096781900007,1740.096781900007,1742.8642893999931,['l'],1,[2.7629359000129625],[None],1742.8657361000078,1742.8783539999858,1742.8783539999858,1742.8783539999858,1744.4627863999922,4,1.580418900004588,4,1.580418900004588,,,,,,sub171_NB,001,2026-02-03_23h11.51.031,recognitionstage,,2025.1.1,59.72738035174004,2026-02-03 23h12.49.509753 +0530,
,,,19,19,0,30,frames\Vid30_EM_T.png,frames\Vid30_L.png,['r'],1,[3.6691597000171896],[None],4,1.199241800000891,,,,,0,19,19,29,1744.4945772000065,,23,Male,Right handed,Normal,,,,,,,,,,,,,,,,,,,,,,,,,,,,,,,,,,,,,,,,1744.4730104999908,1744.4945772000065,1744.4945772000065,1744.4945772000065,1744.4945772000065,1744.4945772000065,1744.4945772000065,1748.1807403999846,['r'],1,[3.6691597000171896],[None],1748.1817900000024,1748.195282700006,1748.195282700006,1748.195282700006,1749.3955807999882,4,1.199241800000891,4,1.199241800000891,,,,,,sub171_NB,001,2026-02-03_23h11.51.031,recognitionstage,,2025.1.1,59.72738035174004,2026-02-03 23h12.49.509753 +0530,
,,,20,20,0,19,frames\Vid19_BB_T.png,frames\Vid19_L.png,['r'],1,[2.5033849999890663],[None],5,0.8138751999940723,,,,,0,20,20,18,1749.428328000009,,23,Male,Right handed,Normal,,,,,,,,,,,,,,,,,,,,,,,,,,,,,,,,,,,,,,,,1749.4089819999936,1749.428328000009,1749.428328000009,1749.428328000009,1749.428328000009,1749.428328000009,1749.428328000009,1751.9473945999925,['r'],1,[2.5033849999890663],[None],1751.9482476999983,1751.9614681999956,1751.9614681999956,1751.9614681999956,1752.779045000003,5,0.8138751999940723,5,0.8138751999940723,,,,,,sub171_NB,001,2026-02-03_23h11.51.031,recognitionstage,,2025.1.1,59.72738035174004,2026-02-03 23h12.49.509753 +0530,
,,,21,21,0,28,frames\Vid28_EM_T.png,frames\Vid28_L.png,['r'],1,[3.4321522999962326],[None],5,2.4967536999902222,,,,,0,21,21,27,1752.8116841999872,,23,Male,Right handed,Normal,,,,,,,,,,,,,,,,,,,,,,,,,,,,,,,,,,,,,,,,1752.7896156999923,1752.8116841999872,1752.8116841999872,1752.8116841999872,1752.8116841999872,1752.8116841999872,1752.8116841999872,1756.2476700999832,['r'],1,[3.4321522999962326],[None],1756.2489005999814,1756.2617681999982,1756.2617681999982,1756.2617681999982,1758.7626712000056,5,2.4967536999902222,5,2.4967536999902222,,,,,,sub171_NB,001,2026-02-03_23h11.51.031,recognitionstage,,2025.1.1,59.72738035174004,2026-02-03 23h12.49.509753 +0530,
,,,22,22,0,18,frames\Vid18_EM_T.png,frames\Vid18_L.png,['r'],0,[12.360685699997703],[None],2,1.3333834999939427,,,,,0,22,22,17,1758.7948158000072,,23,Male,Right handed,Normal,,,,,,,,,,,,,,,,,,,,,,,,,,,,,,,,,,,,,,,,1758.7733204999822,1758.7948158000072,1758.7948158000072,1758.7948158000072,1758.7948158000072,1758.7948158000072,1758.7948158000072,1771.1620129999937,['r'],0,[12.360685699997703],[None],1771.1625117000076,1771.178405499988,1771.178405499988,1771.178405499988,1772.5127573999926,2,1.3333834999939427,2,1.3333834999939427,,,,,,sub171_NB,001,2026-02-03_23h11.51.031,recognitionstage,,2025.1.1,59.72738035174004,2026-02-03 23h12.49.509753 +0530,
,,,23,23,0,29,frames\Vid29_BB_T.png,frames\Vid29_L.png,['r'],1,[4.04229780001333],[None],4,2.898602100001881,,,,,0,23,23,28,1772.5452441000089,,23,Male,Right handed,Normal,,,,,,,,,,,,,,,,,,,,,,,,,,,,,,,,,,,,,,,,1772.5241827999998,1772.5452441000089,1772.5452441000089,1772.5452441000089,1772.5452441000089,1772.5452441000089,1772.5452441000089,1776.5967303999932,['r'],1,[4.04229780001333],[None],1776.597683800006,1776.6112462999881,1776.6112462999881,1776.6112462999881,1779.5118394999881,4,2.898602100001881,4,2.898602100001881,,,,,,sub171_NB,001,2026-02-03_23h11.51.031,recognitionstage,,2025.1.1,59.72738035174004,2026-02-03 23h12.49.509753 +0530,
,,,24,24,0,17,frames\Vid17_BB_T.png,frames\Vid17_L.png,['r'],1,[4.626301100011915],[None],3,0.8150810000079218,,,,,0,24,24,16,1779.5453092999815,,23,Male,Right handed,Normal,,,,,,,,,,,,,,,,,,,,,,,,,,,,,,,,,,,,,,,,1779.5349326999858,1779.5453092999815,1779.5453092999815,1779.5453092999815,1779.5453092999815,1779.5453092999815,1779.5453092999815,1784.179925000004,['r'],1,[4.626301100011915],[None],1784.180895700003,1784.1950524999993,1784.1950524999993,1784.1950524999993,1785.0118308000092,3,0.8150810000079218,3,0.8150810000079218,,,,,,sub171_NB,001,2026-02-03_23h11.51.031,recognitionstage,,2025.1.1,59.72738035174004,2026-02-03 23h12.49.509753 +0530,
,,,25,25,0,10,frames\Vid10_BB_T.png,frames\Vid10_L.png,['l'],1,[3.932124400016619],[None],4,1.56346589999157,,,,,0,25,25,9,1785.0634924999904,,23,Male,Right handed,Normal,,,,,,,,,,,,,,,,,,,,,,,,,,,,,,,,,,,,,,,,1785.0546490999986,1785.0634924999904,1785.0634924999904,1785.0634924999904,1785.0634924999904,1785.0634924999904,1785.0634924999904,1788.997542099998,['l'],1,[3.932124400016619],[None],1788.9987641999905,1789.0116565999924,1789.0116565999924,1789.0116565999924,1790.5790025999886,4,1.56346589999157,4,1.56346589999157,,,,,,sub171_NB,001,2026-02-03_23h11.51.031,recognitionstage,,2025.1.1,59.72738035174004,2026-02-03 23h12.49.509753 +0530,
,,,26,26,0,40,frames\Vid40_EM_T.png,frames\Vid40_L.png,['r'],1,[2.81995810000808],[None],5,1.3482412000012118,,,,,0,26,26,39,1790.5996210000012,,23,Male,Right handed,Normal,,,,,,,,,,,,,,,,,,,,,,,,,,,,,,,,,,,,,,,,1790.5869374999893,1790.5996210000012,1790.5996210000012,1790.5996210000012,1790.5996210000012,1790.5996210000012,1790.5996210000012,1793.4302532000002,['r'],1,[2.81995810000808],[None],1793.4312039999932,1793.444965600007,1793.444965600007,1793.444965600007,1794.7958236999984,5,1.3482412000012118,5,1.3482412000012118,,,,,,sub171_NB,001,2026-02-03_23h11.51.031,recognitionstage,,2025.1.1,59.72738035174004,2026-02-03 23h12.49.509753 +0530,
,,,27,27,0,33,frames\Vid33_BB_T.png,frames\Vid33_L.png,['l'],1,[4.598187499999767],[None],5,3.1645106000069063,,,,,0,27,27,32,1794.813471100002,,23,Male,Right handed,Normal,,,,,,,,,,,,,,,,,,,,,,,,,,,,,,,,,,,,,,,,1794.8059012999875,1794.813471100002,1794.813471100002,1794.813471100002,1794.813471100002,1794.813471100002,1794.813471100002,1799.4142699000076,['l'],1,[4.598187499999767],[None],1799.4152375999838,1799.427995999984,1799.427995999984,1799.427995999984,1802.5952124999894,5,3.1645106000069063,5,3.1645106000069063,,,,,,sub171_NB,001,2026-02-03_23h11.51.031,recognitionstage,,2025.1.1,59.72738035174004,2026-02-03 23h12.49.509753 +0530,
,,,28,28,0,8,frames\Vid8_BB_T.png,frames\Vid8_L.png,['l'],1,[6.5187974000000395],[None],2,1.031556499976432,,,,,0,28,28,7,1802.6454064999998,,23,Male,Right handed,Normal,,,,,,,,,,,,,,,,,,,,,,,,,,,,,,,,,,,,,,,,1802.6314937999996,1802.6454064999998,1802.6454064999998,1802.6454064999998,1802.6454064999998,1802.6454064999998,1802.6454064999998,1809.1798950000084,['l'],1,[6.5187974000000395],[None],1809.1808027999941,1809.1950014999893,1809.1950014999893,1809.1950014999893,1810.2288929999922,2,1.031556499976432,2,1.031556499976432,,,,,,sub171_NB,001,2026-02-03_23h11.51.031,recognitionstage,,2025.1.1,59.72738035174004,2026-02-03 23h12.49.509753 +0530,
,,,29,29,0,4,frames\Vid4_EM_T.png,frames\Vid4_L.png,['l'],1,[4.0015066000050865],[None],4,2.1141262000019196,,,,,0,29,29,3,1810.298042599985,,23,Male,Right handed,Normal,,,,,,,,,,,,,,,,,,,,,,,,,,,,,,,,,,,,,,,,1810.2729987000057,1810.298042599985,1810.298042599985,1810.298042599985,1810.298042599985,1810.298042599985,1810.298042599985,1814.3136962999997,['l'],1,[4.0015066000050865],[None],1814.3147807999921,1814.327908200008,1814.327908200008,1814.327908200008,1816.4455407999922,4,2.1141262000019196,4,2.1141262000019196,,,,,,sub171_NB,001,2026-02-03_23h11.51.031,recognitionstage,,2025.1.1,59.72738035174004,2026-02-03 23h12.49.509753 +0530,
,,,30,30,0,2,frames\Vid2_BB_T.png,frames\Vid2_L.png,['l'],1,[9.721674899978098],[None],3,1.5644480000191834,,,,,0,30,30,1,1816.4980101999827,,23,Male,Right handed,Normal,,,,,,,,,,,,,,,,,,,,,,,,,,,,,,,,,,,,,,,,1816.488331600005,1816.4980101999827,1816.4980101999827,1816.4980101999827,1816.4980101999827,1816.4980101999827,1816.4980101999827,1826.2302916999906,['l'],1,[9.721674899978098],[None],1826.2313798999821,1826.244983099983,1826.244983099983,1826.244983099983,1827.812458600005,3,1.5644480000191834,3,1.5644480000191834,,,,,,sub171_NB,001,2026-02-03_23h11.51.031,recognitionstage,,2025.1.1,59.72738035174004,2026-02-03 23h12.49.509753 +0530,
,,,31,31,0,3,frames\Vid3_BB_T.png,frames\Vid3_L.png,['r'],1,[2.506591199984541],[None],5,0.9134685000171885,,,,,0,31,31,2,1827.865093100001,,23,Male,Right handed,Normal,,,,,,,,,,,,,,,,,,,,,,,,,,,,,,,,,,,,,,,,1827.8541178999876,1827.865093100001,1827.865093100001,1827.865093100001,1827.865093100001,1827.865093100001,1827.865093100001,1830.3809531999868,['r'],1,[2.506591199984541],[None],1830.3822028999857,1830.3945693999995,1830.3945693999995,1830.3945693999995,1831.312932700006,5,0.9134685000171885,5,0.9134685000171885,,,,,,sub171_NB,001,2026-02-03_23h11.51.031,recognitionstage,,2025.1.1,59.72738035174004,2026-02-03 23h12.49.509753 +0530,
,,,32,32,0,15,frames\Vid15_BB_T.png,frames\Vid15_L.png,['r'],1,[3.4773722999962047],[None],5,1.3316385000071023,,,,,0,32,32,14,1831.382282000006,,23,Male,Right handed,Normal,,,,,,,,,,,,,,,,,,,,,,,,,,,,,,,,,,,,,,,,1831.3627042000007,1831.382282000006,1831.382282000006,1831.382282000006,1831.382282000006,1831.382282000006,1831.382282000006,1834.8635739999881,['r'],1,[3.4773722999962047],[None],1834.8647331999964,1834.8780755999906,1834.8780755999906,1834.8780755999906,1836.2121897999896,5,1.3316385000071023,5,1.3316385000071023,,,,,,sub171_NB,001,2026-02-03_23h11.51.031,recognitionstage,,2025.1.1,59.72738035174004,2026-02-03 23h12.49.509753 +0530,
,,,33,33,0,22,frames\Vid22_EM_T.png,frames\Vid22_L.png,['r'],1,[3.54813560002367],[None],5,0.9313198000018019,,,,,0,33,33,21,1836.2475042000005,,23,Male,Right handed,Normal,,,,,,,,,,,,,,,,,,,,,,,,,,,,,,,,,,,,,,,,1836.2248314000026,1836.2475042000005,1836.2475042000005,1836.2475042000005,1836.2475042000005,1836.2475042000005,1836.2475042000005,1839.7972793999943,['r'],1,[3.54813560002367],[None],1839.7981148999825,1839.8115309999848,1839.8115309999848,1839.8115309999848,1840.7452940999938,5,0.9313198000018019,5,0.9313198000018019,,,,,,sub171_NB,001,2026-02-03_23h11.51.031,recognitionstage,,2025.1.1,59.72738035174004,2026-02-03 23h12.49.509753 +0530,
,,,34,34,0,38,frames\Vid38_EM_T.png,frames\Vid38_L.png,['l'],1,[3.0575841999961995],[None],4,1.383692000003066,,,,,0,34,34,37,1840.7780579999962,,23,Male,Right handed,Normal,,,,,,,,,,,,,,,,,,,,,,,,,,,,,,,,,,,,,,,,1840.7562614000053,1840.7780579999962,1840.7780579999962,1840.7780579999962,1840.7780579999962,1840.7780579999962,1840.7780579999962,1843.8457694999815,['l'],1,[3.0575841999961995],[None],1843.846372,1843.8620013000036,1843.8620013000036,1843.8620013000036,1845.2453323999944,4,1.383692000003066,4,1.383692000003066,,,,,,sub171_NB,001,2026-02-03_23h11.51.031,recognitionstage,,2025.1.1,59.72738035174004,2026-02-03 23h12.49.509753 +0530,
,,,35,35,0,24,frames\Vid24_BB_T.png,frames\Vid24_L.png,['r'],1,[3.805555600003572],[None],5,0.8473734999715816,,,,,0,35,35,23,1845.2780445999815,,23,Male,Right handed,Normal,,,,,,,,,,,,,,,,,,,,,,,,,,,,,,,,,,,,,,,,1845.2569288999948,1845.2780445999815,1845.2780445999815,1845.2780445999815,1845.2780445999815,1845.2780445999815,1845.2780445999815,1849.0976436999917,['r'],1,[3.805555600003572],[None],1849.0986207000096,1849.111525299988,1849.111525299988,1849.111525299988,1849.9623094999988,5,0.8473734999715816,5,0.8473734999715816,,,,,,sub171_NB,001,2026-02-03_23h11.51.031,recognitionstage,,2025.1.1,59.72738035174004,2026-02-03 23h12.49.509753 +0530,
,,,36,36,0,31,frames\Vid31_EM_T.png,frames\Vid31_L.png,['l'],1,[5.071354099985911],[None],2,1.4804790999914985,,,,,0,36,36,30,1849.9801694999915,,23,Male,Right handed,Normal,,,,,,,,,,,,,,,,,,,,,,,,,,,,,,,,,,,,,,,,1849.9703746000014,1849.9801694999915,1849.9801694999915,1849.9801694999915,1849.9801694999915,1849.9801694999915,1849.9801694999915,1855.0637753999908,['l'],1,[5.071354099985911],[None],1855.0651512999902,1855.0779956000042,1855.0779956000042,1855.0779956000042,1856.5625956000003,2,1.4804790999914985,2,1.4804790999914985,,,,,,sub171_NB,001,2026-02-03_23h11.51.031,recognitionstage,,2025.1.1,59.72738035174004,2026-02-03 23h12.49.509753 +0530,
,,,37,37,0,7,frames\Vid7_EM_T.png,frames\Vid7_L.png,['r'],1,[9.903312200010987],[None],3,1.1988312999892514,,,,,0,37,37,6,1856.612153199996,,23,Male,Right handed,Normal,,,,,,,,,,,,,,,,,,,,,,,,,,,,,,,,,,,,,,,,1856.6055633999931,1856.612153199996,1856.612153199996,1856.612153199996,1856.612153199996,1856.612153199996,1856.612153199996,1866.5302078999812,['r'],1,[9.903312200010987],[None],1866.5310463999922,1866.544659200008,1866.544659200008,1866.544659200008,1867.7453748999978,3,1.1988312999892514,3,1.1988312999892514,,,,,,sub171_NB,001,2026-02-03_23h11.51.031,recognitionstage,,2025.1.1,59.72738035174004,2026-02-03 23h12.49.509753 +0530,
,,,38,38,0,27,frames\Vid27_BB_T.png,frames\Vid27_L.png,['r'],1,[13.14316529998905],[None],3,1.4300187999906484,,,,,0,38,38,26,1867.7806504000037,,23,Male,Right handed,Normal,,,,,,,,,,,,,,,,,,,,,,,,,,,,,,,,,,,,,,,,1867.7563568000041,1867.7806504000037,1867.7806504000037,1867.7806504000037,1867.7806504000037,1867.7806504000037,1867.7806504000037,1880.9310849999893,['r'],1,[13.14316529998905],[None],1880.9324701000005,1880.9444444999972,1880.9444444999972,1880.9444444999972,1882.3792200000025,3,1.4300187999906484,3,1.4300187999906484,,,,,,sub171_NB,001,2026-02-03_23h11.51.031,recognitionstage,,2025.1.1,59.72738035174004,2026-02-03 23h12.49.509753 +0530,
,,,39,39,0,9,frames\Vid9_EM_T.png,frames\Vid9_L.png,['r'],1,[6.102972899971064],[None],1,1.2998855999903753,,,,,0,39,39,8,1882.4285491000046,,23,Male,Right handed,Normal,,,,,,,,,,,,,,,,,,,,,,,,,,,,,,,,,,,,,,,,1882.4172768999997,1882.4285491000046,1882.4285491000046,1882.4285491000046,1882.4285491000046,1882.4285491000046,1882.4285491000046,1888.5466931999836,['r'],1,[6.102972899971064],[None],1888.5475346999883,1888.5612715999887,1888.5612715999887,1888.5612715999887,1889.8621958000003,1,1.2998855999903753,1,1.2998855999903753,,,,,,sub171_NB,001,2026-02-03_23h11.51.031,recognitionstage,,2025.1.1,59.72738035174004,2026-02-03 23h12.49.509753 +0530,
,,,,,,,,,,,,,,,,,,,,,,,,,23,Male,Right handed,Normal,,,,,,,,,,,,,,,,,,,,,,,,,,,,,,,,,,,,,,,,,,,,,,,,,,,,,,,,,,,,,1889.8623097999953,1889.879686900007,1889.879686900007,1909.862711499998,None,sub171_NB,001,2026-02-03_23h11.51.031,recognitionstage,,2025.1.1,59.72738035174004,2026-02-03 23h12.49.509753 +0530,
