path,duration,thisN,thisTrialN,thisRepN,movie_id,target_img,lure_img,resp.keys,resp.corr,resp.rt,resp.duration,conf_radio.response,conf_radio.rt,movie.thisRepN,movie.thisTrialN,movie.thisN,movie.thisIndex,recogloop.thisRepN,recogloop.thisTrialN,recogloop.thisN,recogloop.thisIndex,thisRow.t,notes,age,gender,handedness,vision,caffeine_2h,alcohol_smoke_12h,demographics.started,demographics.stopped,Instructions.started,text1.started,key_resp.started,Instructions.stopped,key_resp.keys,key_resp.rt,key_resp.duration,instruction_2.started,text2.started,key_resp_2.started,instruction_2.stopped,key_resp_2.keys,key_resp_2.rt,key_resp_2.duration,Videos.started,movie_2.started,key_resp_6.started,movie_2.stopped,key_resp_6.stopped,Videos.stopped,movie.key_resp_6.keys,ISI.started,text.started,ISI.stopped,text.stopped,movie.key_resp_6.rt,movie.key_resp_6.duration,recognition.started,text_4.started,key_resp_3.started,recognition.stopped,key_resp_3.keys,key_resp_3.rt,key_resp_3.duration,recognition_task.started,leftimage.started,rightimage.started,resp.started,frames_question.started,right_label.started,left_label.started,recognition_task.stopped,recogloop.resp.keys,recogloop.resp.corr,recogloop.resp.rt,recogloop.resp.duration,confidence.started,conf_text.started,conf_radio.started,conf_label.started,confidence.stopped,recogloop.conf_radio.response,recogloop.conf_radio.rt,confidence,confidence_rt,thank_you.started,text_6.started,key_resp_4.started,thank_you.stopped,key_resp_4.keys,key_resp_4.rt,key_resp_4.duration,participant,session,date,expName,expVersion,psychopyVersion,frameRate,expStart,...103
,,,,,,,,,,,,,,,,,,,,,,,,20,Female,Right handed,Normal,Caffeine consumed in last 2 hours?,Alcohol or smoking in last 12 hours?,0.010708100016927347,0.013234999991254881,,,,,,,,,,,,,,,,,,,,,,,,,,,,,,,,,,,,,,,,,,,,,,,,,,,,,,,,,,,,,,,sub18_NB,001,2026-01-18_11h23.03.125,recognitionstage,,2025.1.1,59.93669485881572,2026-01-18 11h24.18.365016 +0530,
,,,,,,,,,,,,,,,,,,,,,,,,20,Female,Right handed,Normal,,,,,0.01325580000411719,0.029517699993448332,0.029517699993448332,11.647107400000095,space,11.601681200001622,None,,,,,,,,,,,,,,,,,,,,,,,,,,,,,,,,,,,,,,,,,,,,,,,,,,,,,,,,sub18_NB,001,2026-01-18_11h23.03.125,recognitionstage,,2025.1.1,59.93669485881572,2026-01-18 11h24.18.365016 +0530,
,,,,,,,,,,,,,,,,,,,,,,,,20,Female,Right handed,Normal,,,,,,,,,,,,11.64715599999181,11.664589099993464,11.664589099993464,19.547829499992076,space,7.878835199982859,None,,,,,,,,,,,,,,,,,,,,,,,,,,,,,,,,,,,,,,,,,,,,,,,,,sub18_NB,001,2026-01-18_11h23.03.125,recognitionstage,,2025.1.1,59.93669485881572,2026-01-18 11h24.18.365016 +0530,
Trimmed_videos/natural_14.mp4,25,44,44,0,,,,,,,,,,0,44,44,15,,,,,1513.0811951000069,,20,Female,Right handed,Normal,,,,,,,,,,,,,,,,,,,1513.02947400001,1513.0811951000069,1513.0811951000069,1538.3476780999918,1538.3476780999918,1538.1949364000175,None,1538.3302953999955,1538.3476780999918,1540.8342258000048,1513.0811951000069,14.610082700004568,None,1540.8343412000104,1540.8497541999968,1540.8497541999968,1564.3507944000012,space,23.496328100009123,None,,,,,,,,,,,,,,,,,,,,,,,,,,,,,sub18_NB,001,2026-01-18_11h23.03.125,recognitionstage,,2025.1.1,59.93669485881572,2026-01-18 11h24.18.365016 +0530,
,,0,0,0,19,frames\Vid19_BB_T.png,frames\Vid19_L.png,['l'],1,[10.96554279999691],[None],2,7.431899899995187,,,,,0,0,0,18,1564.3800948999997,,20,Female,Right handed,Normal,,,,,,,,,,,,,,,,,,,,,,,,,,,,,,,,,,,,,,,1564.3715032000036,1564.3800948999997,1564.3800948999997,1564.3800948999997,1564.3800948999997,1564.3800948999997,1564.3800948999997,1575.34983620001,['l'],1,[10.96554279999691],[None],1575.3506984999985,1575.3650261000148,1575.3650261000148,1575.3650261000148,1582.7996092000103,2,7.431899899995187,2,7.431899899995187,,,,,,,,sub18_NB,001,2026-01-18_11h23.03.125,recognitionstage,,2025.1.1,59.93669485881572,2026-01-18 11h24.18.365016 +0530,
,,1,1,0,30,frames\Vid30_EM_T.png,frames\Vid30_L.png,['l'],1,[6.827285900013521],[None],4,4.314299199992092,,,,,0,1,1,29,1582.830461800011,,20,Female,Right handed,Normal,,,,,,,,,,,,,,,,,,,,,,,,,,,,,,,,,,,,,,,1582.8157000000065,1582.830461800011,1582.830461800011,1582.830461800011,1582.830461800011,1582.830461800011,1582.830461800011,1589.6673958000029,['l'],1,[6.827285900013521],[None],1589.6684868000157,1589.6818029000133,1589.6818029000133,1589.6818029000133,1593.998699399992,4,4.314299199992092,4,4.314299199992092,,,,,,,,sub18_NB,001,2026-01-18_11h23.03.125,recognitionstage,,2025.1.1,59.93669485881572,2026-01-18 11h24.18.365016 +0530,
,,2,2,0,39,frames\Vid39_BB_T.png,frames\Vid39_L.png,['l'],0,[4.83246780000627],[None],3,1.5477914999937639,,,,,0,2,2,38,1594.0170574999938,,20,Female,Right handed,Normal,,,,,,,,,,,,,,,,,,,,,,,,,,,,,,,,,,,,,,,1594.0077562000079,1594.0170574999938,1594.0170574999938,1594.0170574999938,1594.0170574999938,1594.0170574999938,1594.0170574999938,1598.850448800018,['l'],0,[4.83246780000627],[None],1598.8512854000146,1598.8647597999952,1598.8647597999952,1598.8647597999952,1600.4166885000013,3,1.5477914999937639,3,1.5477914999937639,,,,,,,,sub18_NB,001,2026-01-18_11h23.03.125,recognitionstage,,2025.1.1,59.93669485881572,2026-01-18 11h24.18.365016 +0530,
,,3,3,0,20,frames\Vid20_EM_T.png,frames\Vid20_L.png,['l'],1,[4.5522982999973465],[None],3,1.2331009000190534,,,,,0,3,3,19,1600.4332811000058,,20,Female,Right handed,Normal,,,,,,,,,,,,,,,,,,,,,,,,,,,,,,,,,,,,,,,1600.4248987000028,1600.4332811000058,1600.4332811000058,1600.4332811000058,1600.4332811000058,1600.4332811000058,1600.4332811000058,1604.999349699996,['l'],1,[4.5522982999973465],[None],1605.0001419000037,1605.0150820999988,1605.0150820999988,1605.0150820999988,1606.2495053000166,3,1.2331009000190534,3,1.2331009000190534,,,,,,,,sub18_NB,001,2026-01-18_11h23.03.125,recognitionstage,,2025.1.1,59.93669485881572,2026-01-18 11h24.18.365016 +0530,
,,4,4,0,8,frames\Vid8_BB_T.png,frames\Vid8_L.png,['r'],1,[3.5191295000258833],[None],5,1.3640822999877855,,,,,0,4,4,7,1606.298589700018,,20,Female,Right handed,Normal,,,,,,,,,,,,,,,,,,,,,,,,,,,,,,,,,,,,,,,1606.2907245999959,1606.298589700018,1606.298589700018,1606.298589700018,1606.298589700018,1606.298589700018,1606.298589700018,1609.8340352000087,['r'],1,[3.5191295000258833],[None],1609.8353381000052,1609.8488961000112,1609.8488961000112,1609.8488961000112,1611.2163619000057,5,1.3640822999877855,5,1.3640822999877855,,,,,,,,sub18_NB,001,2026-01-18_11h23.03.125,recognitionstage,,2025.1.1,59.93669485881572,2026-01-18 11h24.18.365016 +0530,
,,5,5,0,21,frames\Vid21_BB_T.png,frames\Vid21_L.png,['r'],1,[4.7304638999921735],[None],4,1.499207100016065,,,,,0,5,5,20,1611.2472070000076,,20,Female,Right handed,Normal,,,,,,,,,,,,,,,,,,,,,,,,,,,,,,,,,,,,,,,1611.2412144000118,1611.2472070000076,1611.2472070000076,1611.2472070000076,1611.2472070000076,1611.2472070000076,1611.2472070000076,1615.9832705000008,['r'],1,[4.7304638999921735],[None],1615.9839678000135,1615.9989341000037,1615.9989341000037,1615.9989341000037,1617.4995591000188,4,1.499207100016065,4,1.499207100016065,,,,,,,,sub18_NB,001,2026-01-18_11h23.03.125,recognitionstage,,2025.1.1,59.93669485881572,2026-01-18 11h24.18.365016 +0530,
,,6,6,0,12,frames\Vid12_EM_T.png,frames\Vid12_L.png,['r'],1,[3.772479499981273],[None],5,1.0472015999839641,,,,,0,6,6,11,1617.5491070999997,,20,Female,Right handed,Normal,,,,,,,,,,,,,,,,,,,,,,,,,,,,,,,,,,,,,,,1617.5420030000096,1617.5491070999997,1617.5491070999997,1617.5491070999997,1617.5491070999997,1617.5491070999997,1617.5491070999997,1621.3343873000122,['r'],1,[3.772479499981273],[None],1621.3353485999978,1621.3484078000183,1621.3484078000183,1621.3484078000183,1622.3997425000125,5,1.0472015999839641,5,1.0472015999839641,,,,,,,,sub18_NB,001,2026-01-18_11h23.03.125,recognitionstage,,2025.1.1,59.93669485881572,2026-01-18 11h24.18.365016 +0530,
,,7,7,0,10,frames\Vid10_BB_T.png,frames\Vid10_L.png,['r'],1,[3.261946499987971],[None],5,1.1812910999869928,,,,,0,7,7,9,1622.4518351000152,,20,Female,Right handed,Normal,,,,,,,,,,,,,,,,,,,,,,,,,,,,,,,,,,,,,,,1622.4426152000087,1622.4518351000152,1622.4518351000152,1622.4518351000152,1622.4518351000152,1622.4518351000152,1622.4518351000152,1625.717721299996,['r'],1,[3.261946499987971],[None],1625.7187575999997,1625.7320088999986,1625.7320088999986,1625.7320088999986,1626.9156236000126,5,1.1812910999869928,5,1.1812910999869928,,,,,,,,sub18_NB,001,2026-01-18_11h23.03.125,recognitionstage,,2025.1.1,59.93669485881572,2026-01-18 11h24.18.365016 +0530,
,,8,8,0,36,frames\Vid36_BB_T.png,frames\Vid36_L.png,['r'],0,[10.162235999974655],[None],1,1.3473869000154082,,,,,0,8,8,35,1626.9518133999954,,20,Female,Right handed,Normal,,,,,,,,,,,,,,,,,,,,,,,,,,,,,,,,,,,,,,,1626.927799600002,1626.9518133999954,1626.9518133999954,1626.9518133999954,1626.9518133999954,1626.9518133999954,1626.9518133999954,1637.118161899998,['r'],0,[10.162235999974655],[None],1637.1196715999977,1637.1320386000152,1637.1320386000152,1637.1320386000152,1638.4826528000121,1,1.3473869000154082,1,1.3473869000154082,,,,,,,,sub18_NB,001,2026-01-18_11h23.03.125,recognitionstage,,2025.1.1,59.93669485881572,2026-01-18 11h24.18.365016 +0530,
,,9,9,0,11,frames\Vid11_EM_T.png,frames\Vid11_L.png,['l'],1,[2.469358000002103],[None],1,1.2474097000085749,,,,,0,9,9,10,1638.532184700016,,20,Female,Right handed,Normal,,,,,,,,,,,,,,,,,,,,,,,,,,,,,,,,,,,,,,,1638.525850200007,1638.532184700016,1638.532184700016,1638.532184700016,1638.532184700016,1638.532184700016,1638.532184700016,1641.0175375000108,['l'],1,[2.469358000002103],[None],1641.0184749000182,1641.031518600008,1641.031518600008,1641.031518600008,1642.2830486000166,1,1.2474097000085749,1,1.2474097000085749,,,,,,,,sub18_NB,001,2026-01-18_11h23.03.125,recognitionstage,,2025.1.1,59.93669485881572,2026-01-18 11h24.18.365016 +0530,
,,10,10,0,14,frames\Vid14_BB_T.png,frames\Vid14_L.png,['r'],1,[3.378671599988593],[None],4,1.2959660000051372,,,,,0,10,10,13,1642.351206499996,,20,Female,Right handed,Normal,,,,,,,,,,,,,,,,,,,,,,,,,,,,,,,,,,,,,,,1642.3280174999963,1642.351206499996,1642.351206499996,1642.351206499996,1642.351206499996,1642.351206499996,1642.351206499996,1645.7360678999976,['r'],1,[3.378671599988593],[None],1645.7374232000147,1645.763457699999,1645.763457699999,1645.763457699999,1647.0497913,4,1.2959660000051372,4,1.2959660000051372,,,,,,,,sub18_NB,001,2026-01-18_11h23.03.125,recognitionstage,,2025.1.1,59.93669485881572,2026-01-18 11h24.18.365016 +0530,
,,11,11,0,18,frames\Vid18_EM_T.png,frames\Vid18_L.png,['l'],1,[3.0531693999946583],[None],5,1.331894500006456,,,,,0,11,11,17,1647.0845049000054,,20,Female,Right handed,Normal,,,,,,,,,,,,,,,,,,,,,,,,,,,,,,,,,,,,,,,1647.0612786000129,1647.0845049000054,1647.0845049000054,1647.0845049000054,1647.0845049000054,1647.0845049000054,1647.0845049000054,1650.1497076000087,['l'],1,[3.0531693999946583],[None],1650.1504484000034,1650.1652373000106,1650.1652373000106,1650.1652373000106,1651.4989075000049,5,1.331894500006456,5,1.331894500006456,,,,,,,,sub18_NB,001,2026-01-18_11h23.03.125,recognitionstage,,2025.1.1,59.93669485881572,2026-01-18 11h24.18.365016 +0530,
,,12,12,0,6,frames\Vid6_BB_T.png,frames\Vid6_L.png,['l'],1,[3.6203750999993645],[None],5,1.2974424999847542,,,,,0,12,12,5,1651.5492981999996,,20,Female,Right handed,Normal,,,,,,,,,,,,,,,,,,,,,,,,,,,,,,,,,,,,,,,1651.5404684999958,1651.5492981999996,1651.5492981999996,1651.5492981999996,1651.5492981999996,1651.5492981999996,1651.5492981999996,1655.1839074000018,['l'],1,[3.6203750999993645],[None],1655.1849454000185,1655.1985730000015,1655.1985730000015,1655.1985730000015,1656.499717700004,5,1.2974424999847542,5,1.2974424999847542,,,,,,,,sub18_NB,001,2026-01-18_11h23.03.125,recognitionstage,,2025.1.1,59.93669485881572,2026-01-18 11h24.18.365016 +0530,
,,13,13,0,3,frames\Vid3_BB_T.png,frames\Vid3_L.png,['l'],1,[2.937801500025671],[None],5,2.81450209999457,,,,,0,13,13,2,1656.5520405000134,,20,Female,Right handed,Normal,,,,,,,,,,,,,,,,,,,,,,,,,,,,,,,,,,,,,,,1656.539435899991,1656.5520405000134,1656.5520405000134,1656.5520405000134,1656.5520405000134,1656.5520405000134,1656.5520405000134,1659.5003447000054,['l'],1,[2.937801500025671],[None],1659.501353700005,1659.5147995000007,1659.5147995000007,1659.5147995000007,1662.3330485000042,5,2.81450209999457,5,2.81450209999457,,,,,,,,sub18_NB,001,2026-01-18_11h23.03.125,recognitionstage,,2025.1.1,59.93669485881572,2026-01-18 11h24.18.365016 +0530,
,,14,14,0,32,frames\Vid32_EM_T.png,frames\Vid32_L.png,['r'],1,[3.658204100007424],[None],5,0.9654878000146709,,,,,0,14,14,31,1662.3674197999935,,20,Female,Right handed,Normal,,,,,,,,,,,,,,,,,,,,,,,,,,,,,,,,,,,,,,,1662.345325000002,1662.3674197999935,1662.3674197999935,1662.3674197999935,1662.3674197999935,1662.3674197999935,1662.3674197999935,1666.0329940000083,['r'],1,[3.658204100007424],[None],1666.03371660001,1666.0485613000055,1666.0485613000055,1666.0485613000055,1667.0163425999926,5,0.9654878000146709,5,0.9654878000146709,,,,,,,,sub18_NB,001,2026-01-18_11h23.03.125,recognitionstage,,2025.1.1,59.93669485881572,2026-01-18 11h24.18.365016 +0530,
,,15,15,0,37,frames\Vid37_BB_T.png,frames\Vid37_L.png,['r'],1,[2.705475300026592],[None],5,0.9639012000116054,,,,,0,15,15,36,1667.0482040999923,,20,Female,Right handed,Normal,,,,,,,,,,,,,,,,,,,,,,,,,,,,,,,,,,,,,,,1667.0307108999987,1667.0482040999923,1667.0482040999923,1667.0482040999923,1667.0482040999923,1667.0482040999923,1667.0482040999923,1669.767873100005,['r'],1,[2.705475300026592],[None],1669.769026199996,1669.7814978999959,1669.7814978999959,1669.7814978999959,1670.7495142999978,5,0.9639012000116054,5,0.9639012000116054,,,,,,,,sub18_NB,001,2026-01-18_11h23.03.125,recognitionstage,,2025.1.1,59.93669485881572,2026-01-18 11h24.18.365016 +0530,
,,16,16,0,25,frames\Vid25_BB_T.png,frames\Vid25_L.png,['l'],1,[7.412119800021173],[None],5,0.8301471000013407,,,,,0,16,16,24,1670.7817534999922,,20,Female,Right handed,Normal,,,,,,,,,,,,,,,,,,,,,,,,,,,,,,,,,,,,,,,1670.762076700019,1670.7817534999922,1670.7817534999922,1670.7817534999922,1670.7817534999922,1670.7817534999922,1670.7817534999922,1678.2015147999919,['l'],1,[7.412119800021173],[None],1678.2029186,1678.2299920000078,1678.2299920000078,1678.2299920000078,1679.0499283999961,5,0.8301471000013407,5,0.8301471000013407,,,,,,,,sub18_NB,001,2026-01-18_11h23.03.125,recognitionstage,,2025.1.1,59.93669485881572,2026-01-18 11h24.18.365016 +0530,
,,17,17,0,38,frames\Vid38_EM_T.png,frames\Vid38_L.png,['r'],1,[4.096203599998262],[None],4,0.8323499000107404,,,,,0,17,17,37,1679.081543200009,,20,Female,Right handed,Normal,,,,,,,,,,,,,,,,,,,,,,,,,,,,,,,,,,,,,,,1679.060794399993,1679.081543200009,1679.081543200009,1679.081543200009,1679.081543200009,1679.081543200009,1679.081543200009,1683.1831065000151,['r'],1,[4.096203599998262],[None],1683.1837086000014,1683.1987650000083,1683.1987650000083,1683.1987650000083,1684.0330206000071,4,0.8323499000107404,4,0.8323499000107404,,,,,,,,sub18_NB,001,2026-01-18_11h23.03.125,recognitionstage,,2025.1.1,59.93669485881572,2026-01-18 11h24.18.365016 +0530,
,,18,18,0,16,frames\Vid16_EM_T.png,frames\Vid16_L.png,['r'],1,[7.991670100018382],[None],1,2.5818392999935895,,,,,0,18,18,15,1684.0822401999903,,20,Female,Right handed,Normal,,,,,,,,,,,,,,,,,,,,,,,,,,,,,,,,,,,,,,,1684.0730925000098,1684.0822401999903,1684.0822401999903,1684.0822401999903,1684.0822401999903,1684.0822401999903,1684.0822401999903,1692.0837631000031,['r'],1,[7.991670100018382],[None],1692.0850183000148,1692.0985239000001,1692.0985239000001,1692.0985239000001,1694.6826479000156,1,2.5818392999935895,1,2.5818392999935895,,,,,,,,sub18_NB,001,2026-01-18_11h23.03.125,recognitionstage,,2025.1.1,59.93669485881572,2026-01-18 11h24.18.365016 +0530,
,,19,19,0,4,frames\Vid4_EM_T.png,frames\Vid4_L.png,['r'],1,[3.7061956000106875],[None],5,1.0478665999835357,,,,,0,19,19,3,1694.751618600014,,20,Female,Right handed,Normal,,,,,,,,,,,,,,,,,,,,,,,,,,,,,,,,,,,,,,,1694.7297708000115,1694.751618600014,1694.751618600014,1694.751618600014,1694.751618600014,1694.751618600014,1694.751618600014,1698.4674956999952,['r'],1,[3.7061956000106875],[None],1698.468276700005,1698.4815850000014,1698.4815850000014,1698.4815850000014,1699.5329520000087,5,1.0478665999835357,5,1.0478665999835357,,,,,,,,sub18_NB,001,2026-01-18_11h23.03.125,recognitionstage,,2025.1.1,59.93669485881572,2026-01-18 11h24.18.365016 +0530,
,,20,20,0,17,frames\Vid17_BB_T.png,frames\Vid17_L.png,['l'],1,[2.513746300013736],[None],5,0.948078399989754,,,,,0,20,20,16,1699.5682159000135,,20,Female,Right handed,Normal,,,,,,,,,,,,,,,,,,,,,,,,,,,,,,,,,,,,,,,1699.5585204999952,1699.5682159000135,1699.5682159000135,1699.5682159000135,1699.5682159000135,1699.5682159000135,1699.5682159000135,1702.0847022999951,['l'],1,[2.513746300013736],[None],1702.0860002000118,1702.113814500015,1702.113814500015,1702.113814500015,1703.0492428000143,5,0.948078399989754,5,0.948078399989754,,,,,,,,sub18_NB,001,2026-01-18_11h23.03.125,recognitionstage,,2025.1.1,59.93669485881572,2026-01-18 11h24.18.365016 +0530,
,,21,21,0,2,frames\Vid2_BB_T.png,frames\Vid2_L.png,['l'],1,[3.973440000001574],[None],5,1.1642510000092443,,,,,0,21,21,1,1703.1003818000027,,20,Female,Right handed,Normal,,,,,,,,,,,,,,,,,,,,,,,,,,,,,,,,,,,,,,,1703.0880755000107,1703.1003818000027,1703.1003818000027,1703.1003818000027,1703.1003818000027,1703.1003818000027,1703.1003818000027,1707.0844197999977,['l'],1,[3.973440000001574],[None],1707.0853107000003,1707.0981429000094,1707.0981429000094,1707.0981429000094,1708.2660319000133,5,1.1642510000092443,5,1.1642510000092443,,,,,,,,sub18_NB,001,2026-01-18_11h23.03.125,recognitionstage,,2025.1.1,59.93669485881572,2026-01-18 11h24.18.365016 +0530,
,,22,22,0,34,frames\Vid34_BB_T.png,frames\Vid34_L.png,['l'],1,[4.4844106000091415],[None],5,1.5968947999936063,,,,,0,22,22,33,1708.3013046999986,,20,Female,Right handed,Normal,,,,,,,,,,,,,,,,,,,,,,,,,,,,,,,,,,,,,,,1708.2764877000009,1708.3013046999986,1708.3013046999986,1708.3013046999986,1708.3013046999986,1708.3013046999986,1708.3013046999986,1712.8012002000178,['l'],1,[4.4844106000091415],[None],1712.8022237000114,1712.8303460000025,1712.8303460000025,1712.8303460000025,1714.4161901999905,5,1.5968947999936063,5,1.5968947999936063,,,,,,,,sub18_NB,001,2026-01-18_11h23.03.125,recognitionstage,,2025.1.1,59.93669485881572,2026-01-18 11h24.18.365016 +0530,
,,23,23,0,24,frames\Vid24_BB_T.png,frames\Vid24_L.png,['l'],1,[2.0176804999937303],[None],5,0.8636232000135351,,,,,0,23,23,23,1714.4481002000102,,20,Female,Right handed,Normal,,,,,,,,,,,,,,,,,,,,,,,,,,,,,,,,,,,,,,,1714.430351100018,1714.4481002000102,1714.4481002000102,1714.4481002000102,1714.4481002000102,1714.4481002000102,1714.4481002000102,1716.4679978000058,['l'],1,[2.0176804999937303],[None],1716.4690745999978,1716.4969201000058,1716.4969201000058,1716.4969201000058,1717.3495254000009,5,0.8636232000135351,5,0.8636232000135351,,,,,,,,sub18_NB,001,2026-01-18_11h23.03.125,recognitionstage,,2025.1.1,59.93669485881572,2026-01-18 11h24.18.365016 +0530,
,,24,24,0,1,frames\Vid1_EM_T.png,frames\Vid1_L.png,['l'],1,[2.7542937000107486],[None],5,0.8319530000153463,,,,,0,24,24,0,1717.415610199998,,20,Female,Right handed,Normal,,,,,,,,,,,,,,,,,,,,,,,,,,,,,,,,,,,,,,,1717.3946645999968,1717.415610199998,1717.415610199998,1717.415610199998,1717.415610199998,1717.415610199998,1717.415610199998,1720.1831739000045,['l'],1,[2.7542937000107486],[None],1720.1839369999943,1720.1986637999944,1720.1986637999944,1720.1986637999944,1721.0323675000109,5,0.8319530000153463,5,0.8319530000153463,,,,,,,,sub18_NB,001,2026-01-18_11h23.03.125,recognitionstage,,2025.1.1,59.93669485881572,2026-01-18 11h24.18.365016 +0530,
,,25,25,0,15,frames\Vid15_BB_T.png,frames\Vid15_L.png,['r'],1,[4.00364169999375],[None],5,1.0810450999997556,,,,,0,25,25,14,1721.1021524000098,,20,Female,Right handed,Normal,,,,,,,,,,,,,,,,,,,,,,,,,,,,,,,,,,,,,,,1721.0793511999946,1721.1021524000098,1721.1021524000098,1721.1021524000098,1721.1021524000098,1721.1021524000098,1721.1021524000098,1725.1180475,['r'],1,[4.00364169999375],[None],1725.1190479999932,1725.1315845999925,1725.1315845999925,1725.1315845999925,1726.2159176999994,5,1.0810450999997556,5,1.0810450999997556,,,,,,,,sub18_NB,001,2026-01-18_11h23.03.125,recognitionstage,,2025.1.1,59.93669485881572,2026-01-18 11h24.18.365016 +0530,
,,26,26,0,23,frames\Vid23_EM_T.png,frames\Vid23_L.png,['l'],1,[2.5909010999894235],[None],3,1.215632800012827,,,,,0,26,26,22,1726.2508934999933,,20,Female,Right handed,Normal,,,,,,,,,,,,,,,,,,,,,,,,,,,,,,,,,,,,,,,1726.2308764999907,1726.2508934999933,1726.2508934999933,1726.2508934999933,1726.2508934999933,1726.2508934999933,1726.2508934999933,1728.8503595000075,['l'],1,[2.5909010999894235],[None],1728.8515336000128,1728.8653498000058,1728.8653498000058,1728.8653498000058,1730.082492400019,3,1.215632800012827,3,1.215632800012827,,,,,,,,sub18_NB,001,2026-01-18_11h23.03.125,recognitionstage,,2025.1.1,59.93669485881572,2026-01-18 11h24.18.365016 +0530,
,,27,27,0,26,frames\Vid26_EM_T.png,frames\Vid26_L.png,['r'],1,[4.526573700015433],[None],4,1.3650197999959346,,,,,0,27,27,25,1730.1152786000166,,20,Female,Right handed,Normal,,,,,,,,,,,,,,,,,,,,,,,,,,,,,,,,,,,,,,,1730.0970551999926,1730.1152786000166,1730.1152786000166,1730.1152786000166,1730.1152786000166,1730.1152786000166,1730.1152786000166,1734.6504249999998,['r'],1,[4.526573700015433],[None],1734.651762900001,1734.665330799995,1734.665330799995,1734.665330799995,1736.0332535000052,4,1.3650197999959346,4,1.3650197999959346,,,,,,,,sub18_NB,001,2026-01-18_11h23.03.125,recognitionstage,,2025.1.1,59.93669485881572,2026-01-18 11h24.18.365016 +0530,
,,28,28,0,29,frames\Vid29_BB_T.png,frames\Vid29_L.png,['l'],1,[3.3527877000160515],[None],1,0.7980310000129975,,,,,0,28,28,28,1736.0653134000022,,20,Female,Right handed,Normal,,,,,,,,,,,,,,,,,,,,,,,,,,,,,,,,,,,,,,,1736.045959900017,1736.0653134000022,1736.0653134000022,1736.0653134000022,1736.0653134000022,1736.0653134000022,1736.0653134000022,1739.4337240000023,['l'],1,[3.3527877000160515],[None],1739.4346402999945,1739.4486585000122,1739.4486585000122,1739.4486585000122,1740.249811799993,1,0.7980310000129975,1,0.7980310000129975,,,,,,,,sub18_NB,001,2026-01-18_11h23.03.125,recognitionstage,,2025.1.1,59.93669485881572,2026-01-18 11h24.18.365016 +0530,
,,29,29,0,28,frames\Vid28_EM_T.png,frames\Vid28_L.png,['l'],1,[2.184095400007209],[None],5,1.5640585999935865,,,,,0,29,29,27,1740.2817832000146,,20,Female,Right handed,Normal,,,,,,,,,,,,,,,,,,,,,,,,,,,,,,,,,,,,,,,1740.259938400006,1740.2817832000146,1740.2817832000146,1740.2817832000146,1740.2817832000146,1740.2817832000146,1740.2817832000146,1742.468425900006,['l'],1,[2.184095400007209],[None],1742.4694405000191,1742.4816628000117,1742.4816628000117,1742.4816628000117,1744.0492870000016,5,1.5640585999935865,5,1.5640585999935865,,,,,,,,sub18_NB,001,2026-01-18_11h23.03.125,recognitionstage,,2025.1.1,59.93669485881572,2026-01-18 11h24.18.365016 +0530,
,,30,30,0,27,frames\Vid27_BB_T.png,frames\Vid27_L.png,['l'],1,[2.966674700001022],[None],4,0.9472856000065804,,,,,0,30,30,26,1744.0672416000161,,20,Female,Right handed,Normal,,,,,,,,,,,,,,,,,,,,,,,,,,,,,,,,,,,,,,,1744.0593285000068,1744.0672416000161,1744.0672416000161,1744.0672416000161,1744.0672416000161,1744.0672416000161,1744.0672416000161,1747.0350940999924,['l'],1,[2.966674700001022],[None],1747.0361088000063,1747.0482806999935,1747.0482806999935,1747.0482806999935,1747.9999151999946,4,0.9472856000065804,4,0.9472856000065804,,,,,,,,sub18_NB,001,2026-01-18_11h23.03.125,recognitionstage,,2025.1.1,59.93669485881572,2026-01-18 11h24.18.365016 +0530,
,,31,31,0,33,frames\Vid33_BB_T.png,frames\Vid33_L.png,['l'],1,[4.017884100001538],[None],5,2.1811059000028763,,,,,0,31,31,32,1748.031945900002,,20,Female,Right handed,Normal,,,,,,,,,,,,,,,,,,,,,,,,,,,,,,,,,,,,,,,1748.0113801000116,1748.031945900002,1748.031945900002,1748.031945900002,1748.031945900002,1748.031945900002,1748.031945900002,1752.050727199996,['l'],1,[4.017884100001538],[None],1752.0515791999933,1752.0649761999957,1752.0649761999957,1752.0649761999957,1754.2498164999997,5,2.1811059000028763,5,2.1811059000028763,,,,,,,,sub18_NB,001,2026-01-18_11h23.03.125,recognitionstage,,2025.1.1,59.93669485881572,2026-01-18 11h24.18.365016 +0530,
,,32,32,0,7,frames\Vid7_EM_T.png,frames\Vid7_L.png,['r'],1,[3.565576599998167],[None],4,1.081537300022319,,,,,0,32,32,6,1754.3162531999988,,20,Female,Right handed,Normal,,,,,,,,,,,,,,,,,,,,,,,,,,,,,,,,,,,,,,,1754.2943656000134,1754.3162531999988,1754.3162531999988,1754.3162531999988,1754.3162531999988,1754.3162531999988,1754.3162531999988,1757.8842965000076,['r'],1,[3.565576599998167],[None],1757.885238100018,1757.898777800001,1757.898777800001,1757.898777800001,1758.982361500006,4,1.081537300022319,4,1.081537300022319,,,,,,,,sub18_NB,001,2026-01-18_11h23.03.125,recognitionstage,,2025.1.1,59.93669485881572,2026-01-18 11h24.18.365016 +0530,
,,33,33,0,31,frames\Vid31_EM_T.png,frames\Vid31_L.png,['l'],1,[2.0469219000078738],[None],5,1.0309554999985266,,,,,0,33,33,30,1759.003019099997,,20,Female,Right handed,Normal,,,,,,,,,,,,,,,,,,,,,,,,,,,,,,,,,,,,,,,1758.9911639000056,1759.003019099997,1759.003019099997,1759.003019099997,1759.003019099997,1759.003019099997,1759.003019099997,1761.0505811999901,['l'],1,[2.0469219000078738],[None],1761.0516814000148,1761.0655564999906,1761.0655564999906,1761.0655564999906,1762.0993325000163,5,1.0309554999985266,5,1.0309554999985266,,,,,,,,sub18_NB,001,2026-01-18_11h23.03.125,recognitionstage,,2025.1.1,59.93669485881572,2026-01-18 11h24.18.365016 +0530,
,,34,34,0,40,frames\Vid40_EM_T.png,frames\Vid40_L.png,['l'],1,[3.004899599996861],[None],5,1.0807365000073332,,,,,0,34,34,39,1762.1168558000063,,20,Female,Right handed,Normal,,,,,,,,,,,,,,,,,,,,,,,,,,,,,,,,,,,,,,,1762.1063005000178,1762.1168558000063,1762.1168558000063,1762.1168558000063,1762.1168558000063,1762.1168558000063,1762.1168558000063,1765.134065499995,['l'],1,[3.004899599996861],[None],1765.135067700001,1765.1482464,1765.1482464,1765.1482464,1766.2325268000131,5,1.0807365000073332,5,1.0807365000073332,,,,,,,,sub18_NB,001,2026-01-18_11h23.03.125,recognitionstage,,2025.1.1,59.93669485881572,2026-01-18 11h24.18.365016 +0530,
,,35,35,0,35,frames\Vid35_EM_T.png,frames\Vid35_L.png,['l'],1,[2.1681107000040356],[None],5,0.7316624999803025,,,,,0,35,35,34,1766.2498543999973,,20,Female,Right handed,Normal,,,,,,,,,,,,,,,,,,,,,,,,,,,,,,,,,,,,,,,1766.2417287999997,1766.2498543999973,1766.2498543999973,1766.2498543999973,1766.2498543999973,1766.2498543999973,1766.2498543999973,1768.4339256999956,['l'],1,[2.1681107000040356],[None],1768.4346892000176,1768.4482606000092,1768.4482606000092,1768.4482606000092,1769.1828880000103,5,0.7316624999803025,5,0.7316624999803025,,,,,,,,sub18_NB,001,2026-01-18_11h23.03.125,recognitionstage,,2025.1.1,59.93669485881572,2026-01-18 11h24.18.365016 +0530,
,,36,36,0,9,frames\Vid9_EM_T.png,frames\Vid9_L.png,['l'],1,[3.1607004999823403],[None],4,0.9650997999997344,,,,,0,36,36,8,1769.2332830000087,,20,Female,Right handed,Normal,,,,,,,,,,,,,,,,,,,,,,,,,,,,,,,,,,,,,,,1769.2197335000092,1769.2332830000087,1769.2332830000087,1769.2332830000087,1769.2332830000087,1769.2332830000087,1769.2332830000087,1772.4004027000046,['l'],1,[3.1607004999823403],[None],1772.4015210999933,1772.415421200014,1772.415421200014,1772.415421200014,1773.3826295000035,4,0.9650997999997344,4,0.9650997999997344,,,,,,,,sub18_NB,001,2026-01-18_11h23.03.125,recognitionstage,,2025.1.1,59.93669485881572,2026-01-18 11h24.18.365016 +0530,
,,37,37,0,13,frames\Vid13_BB_T.png,frames\Vid13_L.png,['l'],1,[6.3188915999780875],[None],4,0.8979175999993458,,,,,0,37,37,12,1773.4350012000068,,20,Female,Right handed,Normal,,,,,,,,,,,,,,,,,,,,,,,,,,,,,,,,,,,,,,,1773.415631700016,1773.4350012000068,1773.4350012000068,1773.4350012000068,1773.4350012000068,1773.4350012000068,1773.4350012000068,1779.767291199998,['l'],1,[6.3188915999780875],[None],1779.7681195000187,1779.7822529000114,1779.7822529000114,1779.7822529000114,1780.6831278000027,4,0.8979175999993458,4,0.8979175999993458,,,,,,,,sub18_NB,001,2026-01-18_11h23.03.125,recognitionstage,,2025.1.1,59.93669485881572,2026-01-18 11h24.18.365016 +0530,
,,38,38,0,22,frames\Vid22_EM_T.png,frames\Vid22_L.png,['r'],1,[3.2202740000211634],[None],5,0.965573299996322,,,,,0,38,38,21,1780.7175745000131,,20,Female,Right handed,Normal,,,,,,,,,,,,,,,,,,,,,,,,,,,,,,,,,,,,,,,1780.6955208000145,1780.7175745000131,1780.7175745000131,1780.7175745000131,1780.7175745000131,1780.7175745000131,1780.7175745000131,1783.9507166999974,['r'],1,[3.2202740000211634],[None],1783.9517381000041,1783.9653616000141,1783.9653616000141,1783.9653616000141,1784.932667200017,5,0.965573299996322,5,0.965573299996322,,,,,,,,sub18_NB,001,2026-01-18_11h23.03.125,recognitionstage,,2025.1.1,59.93669485881572,2026-01-18 11h24.18.365016 +0530,
,,39,39,0,5,frames\Vid5_EM_T.png,frames\Vid5_L.png,['r'],1,[3.5554887000180315],[None],4,0.8158503000158817,,,,,0,39,39,4,1784.9823552000162,,20,Female,Right handed,Normal,,,,,,,,,,,,,,,,,,,,,,,,,,,,,,,,,,,,,,,1784.9604992000095,1784.9823552000162,1784.9823552000162,1784.9823552000162,1784.9823552000162,1784.9823552000162,1784.9823552000162,1788.5499436999962,['r'],1,[3.5554887000180315],[None],1788.5507597000105,1788.5655426000012,1788.5655426000012,1788.5655426000012,1789.3823370000173,4,0.8158503000158817,4,0.8158503000158817,,,,,,,,sub18_NB,001,2026-01-18_11h23.03.125,recognitionstage,,2025.1.1,59.93669485881572,2026-01-18 11h24.18.365016 +0530,
,,,,,,,,,,,,,,,,,,,,,,,,20,Female,Right handed,Normal,,,,,,,,,,,,,,,,,,,,,,,,,,,,,,,,,,,,,,,,,,,,,,,,,,,,,,,,,,,,1789.3824276000087,1789.3994880999962,1789.3994880999962,1792.5333589999937,space,3.1224949000170454,None,sub18_NB,001,2026-01-18_11h23.03.125,recognitionstage,,2025.1.1,59.93669485881572,2026-01-18 11h24.18.365016 +0530,
