path,duration,is_repeat,thisN,thisTrialN,thisRepN,movie_id,target_img,lure_img,resp.keys,resp.corr,resp.rt,resp.duration,conf_radio.response,conf_radio.rt,movie.thisRepN,movie.thisTrialN,movie.thisN,movie.thisIndex,recogloop.thisRepN,recogloop.thisTrialN,recogloop.thisN,recogloop.thisIndex,thisRow.t,notes,age,gender,handedness,vision,caffeine_2h,alcohol_smoke_12h,demographics.started,demographics.stopped,Instructions.started,text1.started,key_resp.started,Instructions.stopped,key_resp.keys,key_resp.rt,key_resp.duration,instruction_2.started,text2.started,key_resp_2.started,instruction_2.stopped,key_resp_2.keys,key_resp_2.rt,key_resp_2.duration,Videos.started,movie_2.started,vigilance_resp.started,movie_2.stopped,Videos.stopped,movie.vigilance_resp.keys,vigilance_pressed,vigilance_correct,ISI.started,text.started,text.stopped,ISI.stopped,movie.vigilance_resp.rt,movie.vigilance_resp.duration,recognition.started,text_4.started,key_resp_3.started,recognition.stopped,key_resp_3.keys,key_resp_3.rt,key_resp_3.duration,recognition_task.started,leftimage.started,rightimage.started,resp.started,frames_question.started,right_label.started,left_label.started,recognition_task.stopped,recogloop.resp.keys,recogloop.resp.corr,recogloop.resp.rt,recogloop.resp.duration,confidence.started,conf_text.started,conf_radio.started,conf_label.started,confidence.stopped,recogloop.conf_radio.response,recogloop.conf_radio.rt,confidence,confidence_rt,thank_you.started,text_6.started,key_resp_4.started,thank_you.stopped,key_resp_4.keys,participant,session,date,expName,expVersion,psychopyVersion,frameRate,expStart,...103
,,,,,,,,,,,,,,,,,,,,,,,,,20,Male,Right handed,Corrected to normal,Caffeine consumed in last 2 hours?,Alcohol or smoking in last 12 hours?,0.0196948999655433,0.022085400007199496,,,,,,,,,,,,,,,,,,,,,,,,,,,,,,,,,,,,,,,,,,,,,,,,,,,,,,,,,,,,,,sub114_AB,001,2026-01-31_18h01.29.246,recognitionstage,,2025.1.1,60.529390045751434,2026-01-31 18h02.45.286196 +0530,
,,,,,,,,,,,,,,,,,,,,,,,,,20,Male,Right handed,Corrected to normal,,,,,0.022107900003902614,0.038688400003593415,0.038688400003593415,10.94085349998204,space,10.89815310004633,None,,,,,,,,,,,,,,,,,,,,,,,,,,,,,,,,,,,,,,,,,,,,,,,,,,,,,,,sub114_AB,001,2026-01-31_18h01.29.246,recognitionstage,,2025.1.1,60.529390045751434,2026-01-31 18h02.45.286196 +0530,
,,,,,,,,,,,,,,,,,,,,,,,,,20,Male,Right handed,Corrected to normal,,,,,,,,,,,,10.940901800000574,10.955967499990948,10.955967499990948,19.15611759998137,space,8.188565999967977,None,,,,,,,,,,,,,,,,,,,,,,,,,,,,,,,,,,,,,,,,,,,,,,,,sub114_AB,001,2026-01-31_18h01.29.246,recognitionstage,,2025.1.1,60.529390045751434,2026-01-31 18h02.45.286196 +0530,
abrupt_videos\abrupt_20.mp4,35,0,44,44,0,,,,,,,,,,0,44,44,22,,,,,1503.405048399989,,20,Male,Right handed,Corrected to normal,,,,,,,,,,,,,,,,,,,1503.3456058999873,1503.405048399989,1503.405048399989,1539.5041293000104,1539.347525099991,None,0,1,1539.482809899957,1539.5041293000104,1503.405048399989,1541.9914244000101,1.575069100013934,None,1541.9915253999643,1542.006240699964,1542.006240699964,1568.3071533999755,space,26.298871900013182,None,,,,,,,,,,,,,,,,,,,,,,,,,,,sub114_AB,001,2026-01-31_18h01.29.246,recognitionstage,,2025.1.1,60.529390045751434,2026-01-31 18h02.45.286196 +0530,
,,,0,0,0,16,frames\Vid16_EM_T.png,frames\Vid16_L.png,['l'],1,[5.646195399982389],[None],5,7.182239199988544,,,,,0,0,0,15,1568.3707139999606,,20,Male,Right handed,Corrected to normal,,,,,,,,,,,,,,,,,,,,,,,,,,,,,,,,,,,,,,,,1568.3556454000063,1568.3707139999606,1568.3707139999606,1568.3707139999606,1568.3707139999606,1568.3707139999606,1568.3707139999606,1574.023184699996,['l'],1,[5.646195399982389],[None],1574.0238835999626,1574.0381608000025,1574.0381608000025,1574.0381608000025,1581.2234174999758,5,7.182239199988544,5,7.182239199988544,,,,,,sub114_AB,001,2026-01-31_18h01.29.246,recognitionstage,,2025.1.1,60.529390045751434,2026-01-31 18h02.45.286196 +0530,
,,,1,1,0,25,frames\Vid25_BB_T.png,frames\Vid25_L.png,['r'],1,[3.8422277999925427],[None],5,1.1312820999883115,,,,,0,1,1,24,1581.2705237999908,,20,Male,Right handed,Corrected to normal,,,,,,,,,,,,,,,,,,,,,,,,,,,,,,,,,,,,,,,,1581.2555027999915,1581.2705237999908,1581.2705237999908,1581.2705237999908,1581.2705237999908,1581.2705237999908,1581.2705237999908,1585.124038799957,['r'],1,[3.8422277999925427],[None],1585.125386699976,1585.1387146000052,1585.1387146000052,1585.1387146000052,1586.2722460000077,5,1.1312820999883115,5,1.1312820999883115,,,,,,sub114_AB,001,2026-01-31_18h01.29.246,recognitionstage,,2025.1.1,60.529390045751434,2026-01-31 18h02.45.286196 +0530,
,,,2,2,0,9,frames\Vid9_EM_T.png,frames\Vid9_L.png,['r'],1,[4.6384851999464445],[None],5,1.1474864999763668,,,,,0,2,2,8,1586.3224489999702,,20,Male,Right handed,Corrected to normal,,,,,,,,,,,,,,,,,,,,,,,,,,,,,,,,,,,,,,,,1586.3086578999646,1586.3224489999702,1586.3224489999702,1586.3224489999702,1586.3224489999702,1586.3224489999702,1586.3224489999702,1590.9742241000058,['r'],1,[4.6384851999464445],[None],1590.975156600005,1590.9883242999786,1590.9883242999786,1590.9883242999786,1592.13985159999,5,1.1474864999763668,5,1.1474864999763668,,,,,,sub114_AB,001,2026-01-31_18h01.29.246,recognitionstage,,2025.1.1,60.529390045751434,2026-01-31 18h02.45.286196 +0530,
,,,3,3,0,32,frames\Vid32_EM_T.png,frames\Vid32_L.png,['l'],1,[6.6028034999617375],[None],5,1.0813579000532627,,,,,0,3,3,31,1592.1740665999823,,20,Male,Right handed,Corrected to normal,,,,,,,,,,,,,,,,,,,,,,,,,,,,,,,,,,,,,,,,1592.1513201000053,1592.1740665999823,1592.1740665999823,1592.1740665999823,1592.1740665999823,1592.1740665999823,1592.1740665999823,1598.7905344999745,['l'],1,[6.6028034999617375],[None],1598.7913456999813,1598.8054742999957,1598.8054742999957,1598.8054742999957,1599.8895640999544,5,1.0813579000532627,5,1.0813579000532627,,,,,,sub114_AB,001,2026-01-31_18h01.29.246,recognitionstage,,2025.1.1,60.529390045751434,2026-01-31 18h02.45.286196 +0530,
,,,4,4,0,5,frames\Vid5_EM_T.png,frames\Vid5_L.png,['l'],1,[3.5581256999867037],[None],4,3.0981643000268377,,,,,0,4,4,4,1599.9387880999711,,20,Male,Right handed,Corrected to normal,,,,,,,,,,,,,,,,,,,,,,,,,,,,,,,,,,,,,,,,1599.91747819999,1599.9387880999711,1599.9387880999711,1599.9387880999711,1599.9387880999711,1599.9387880999711,1599.9387880999711,1603.5069095999934,['l'],1,[3.5581256999867037],[None],1603.5077566999826,1603.5219501999673,1603.5219501999673,1603.5219501999673,1606.6233199999551,4,3.0981643000268377,4,3.0981643000268377,,,,,,sub114_AB,001,2026-01-31_18h01.29.246,recognitionstage,,2025.1.1,60.529390045751434,2026-01-31 18h02.45.286196 +0530,
,,,5,5,0,39,frames\Vid39_BB_T.png,frames\Vid39_L.png,['l'],1,[16.32673839997733],[None],4,3.1140505999792367,,,,,0,5,5,38,1606.6582386000082,,20,Male,Right handed,Corrected to normal,,,,,,,,,,,,,,,,,,,,,,,,,,,,,,,,,,,,,,,,1606.6345272999606,1606.6582386000082,1606.6582386000082,1606.6582386000082,1606.6582386000082,1606.6582386000082,1606.6582386000082,1622.9913325000089,['l'],1,[16.32673839997733],[None],1622.992833199969,1623.0206394999987,1623.0206394999987,1623.0206394999987,1626.1228876999812,4,3.1140505999792367,4,3.1140505999792367,,,,,,sub114_AB,001,2026-01-31_18h01.29.246,recognitionstage,,2025.1.1,60.529390045751434,2026-01-31 18h02.45.286196 +0530,
,,,6,6,0,22,frames\Vid22_EM_T.png,frames\Vid22_L.png,['l'],1,[4.165889199997764],[None],5,1.8150757000548765,,,,,0,6,6,21,1626.155119300005,,20,Male,Right handed,Corrected to normal,,,,,,,,,,,,,,,,,,,,,,,,,,,,,,,,,,,,,,,,1626.1384236000013,1626.155119300005,1626.155119300005,1626.155119300005,1626.155119300005,1626.155119300005,1626.155119300005,1630.3239661999978,['l'],1,[4.165889199997764],[None],1630.3253187999944,1630.3388227999676,1630.3388227999676,1630.3388227999676,1632.1563191000023,5,1.8150757000548765,5,1.8150757000548765,,,,,,sub114_AB,001,2026-01-31_18h01.29.246,recognitionstage,,2025.1.1,60.529390045751434,2026-01-31 18h02.45.286196 +0530,
,,,7,7,0,3,frames\Vid3_BB_T.png,frames\Vid3_L.png,['l'],1,[4.330937300052028],[None],5,1.0966442999779247,,,,,0,7,7,2,1632.2059892999823,,20,Male,Right handed,Corrected to normal,,,,,,,,,,,,,,,,,,,,,,,,,,,,,,,,,,,,,,,,1632.19636609999,1632.2059892999823,1632.2059892999823,1632.2059892999823,1632.2059892999823,1632.2059892999823,1632.2059892999823,1636.5418624999584,['l'],1,[4.330937300052028],[None],1636.5431771999574,1636.5703457999625,1636.5703457999625,1636.5703457999625,1637.656162899977,5,1.0966442999779247,5,1.0966442999779247,,,,,,sub114_AB,001,2026-01-31_18h01.29.246,recognitionstage,,2025.1.1,60.529390045751434,2026-01-31 18h02.45.286196 +0530,
,,,8,8,0,2,frames\Vid2_BB_T.png,frames\Vid2_L.png,['r'],1,[5.684326299990062],[None],5,0.9318792999838479,,,,,0,8,8,1,1637.7085967999883,,20,Male,Right handed,Corrected to normal,,,,,,,,,,,,,,,,,,,,,,,,,,,,,,,,,,,,,,,,1637.6939550999668,1637.7085967999883,1637.7085967999883,1637.7085967999883,1637.7085967999883,1637.7085967999883,1637.7085967999883,1643.4066206999705,['r'],1,[5.684326299990062],[None],1643.4074798999936,1643.4220791999833,1643.4220791999833,1643.4220791999833,1644.356091499969,5,0.9318792999838479,5,0.9318792999838479,,,,,,sub114_AB,001,2026-01-31_18h01.29.246,recognitionstage,,2025.1.1,60.529390045751434,2026-01-31 18h02.45.286196 +0530,
,,,9,9,0,12,frames\Vid12_EM_T.png,frames\Vid12_L.png,['r'],1,[5.815532099979464],[None],5,0.9651581000071019,,,,,0,9,9,11,1644.4253560999641,,20,Male,Right handed,Corrected to normal,,,,,,,,,,,,,,,,,,,,,,,,,,,,,,,,,,,,,,,,1644.3999711999786,1644.4253560999641,1644.4253560999641,1644.4253560999641,1644.4253560999641,1644.4253560999641,1644.4253560999641,1650.256588999997,['r'],1,[5.815532099979464],[None],1650.257327499974,1650.2722600999987,1650.2722600999987,1650.2722600999987,1651.2393608999555,5,0.9651581000071019,5,0.9651581000071019,,,,,,sub114_AB,001,2026-01-31_18h01.29.246,recognitionstage,,2025.1.1,60.529390045751434,2026-01-31 18h02.45.286196 +0530,
,,,10,10,0,28,frames\Vid28_EM_T.png,frames\Vid28_L.png,['r'],1,[4.348815099976491],[None],5,1.0818667000276037,,,,,0,10,10,27,1651.2600188999786,,20,Male,Right handed,Corrected to normal,,,,,,,,,,,,,,,,,,,,,,,,,,,,,,,,,,,,,,,,1651.2491851999657,1651.2600188999786,1651.2600188999786,1651.2600188999786,1651.2600188999786,1651.2600188999786,1651.2600188999786,1655.6236019000062,['r'],1,[4.348815099976491],[None],1655.6244338999968,1655.638842699991,1655.638842699991,1655.638842699991,1656.7219854999566,5,1.0818667000276037,5,1.0818667000276037,,,,,,sub114_AB,001,2026-01-31_18h01.29.246,recognitionstage,,2025.1.1,60.529390045751434,2026-01-31 18h02.45.286196 +0530,
,,,11,11,0,35,frames\Vid35_EM_T.png,frames\Vid35_L.png,['l'],1,[8.228568199963775],[None],5,0.9796960999956354,,,,,0,11,11,34,1656.7404307999532,,20,Male,Right handed,Corrected to normal,,,,,,,,,,,,,,,,,,,,,,,,,,,,,,,,,,,,,,,,1656.7293610000052,1656.7404307999532,1656.7404307999532,1656.7404307999532,1656.7404307999532,1656.7404307999532,1656.7404307999532,1664.975893899973,['l'],1,[8.228568199963775],[None],1664.977529899974,1665.0032015999896,1665.0032015999896,1665.0032015999896,1665.9720726999803,5,0.9796960999956354,5,0.9796960999956354,,,,,,sub114_AB,001,2026-01-31_18h01.29.246,recognitionstage,,2025.1.1,60.529390045751434,2026-01-31 18h02.45.286196 +0530,
,,,12,12,0,36,frames\Vid36_BB_T.png,frames\Vid36_L.png,['l'],0,[6.8924018000252545],[None],3,2.0147108000237495,,,,,0,12,12,35,1666.004884199996,,20,Male,Right handed,Corrected to normal,,,,,,,,,,,,,,,,,,,,,,,,,,,,,,,,,,,,,,,,1665.984011499968,1666.004884199996,1666.004884199996,1666.004884199996,1666.004884199996,1666.004884199996,1666.004884199996,1672.9069394999533,['l'],0,[6.8924018000252545],[None],1672.9077687999816,1672.9221840999671,1672.9221840999671,1672.9221840999671,1674.9396976999706,3,2.0147108000237495,3,2.0147108000237495,,,,,,sub114_AB,001,2026-01-31_18h01.29.246,recognitionstage,,2025.1.1,60.529390045751434,2026-01-31 18h02.45.286196 +0530,
,,,13,13,0,33,frames\Vid33_BB_T.png,frames\Vid33_L.png,['l'],1,[4.021355400036555],[None],4,1.3634430000092834,,,,,0,13,13,32,1674.9718428999768,,20,Male,Right handed,Corrected to normal,,,,,,,,,,,,,,,,,,,,,,,,,,,,,,,,,,,,,,,,1674.9506008999888,1674.9718428999768,1674.9718428999768,1674.9718428999768,1674.9718428999768,1674.9718428999768,1674.9718428999768,1679.0079272000003,['l'],1,[4.021355400036555],[None],1679.0091311999713,1679.022068899998,1679.022068899998,1679.022068899998,1680.390096099989,4,1.3634430000092834,4,1.3634430000092834,,,,,,sub114_AB,001,2026-01-31_18h01.29.246,recognitionstage,,2025.1.1,60.529390045751434,2026-01-31 18h02.45.286196 +0530,
,,,14,14,0,30,frames\Vid30_EM_T.png,frames\Vid30_L.png,['r'],1,[4.242829700000584],[None],4,0.9325731000280939,,,,,0,14,14,29,1680.4220321999746,,20,Male,Right handed,Corrected to normal,,,,,,,,,,,,,,,,,,,,,,,,,,,,,,,,,,,,,,,,1680.400676899997,1680.4220321999746,1680.4220321999746,1680.4220321999746,1680.4220321999746,1680.4220321999746,1680.4220321999746,1684.673279199982,['r'],1,[4.242829700000584],[None],1684.6740415999666,1684.6882736999542,1684.6882736999542,1684.6882736999542,1685.6226720999693,4,0.9325731000280939,4,0.9325731000280939,,,,,,sub114_AB,001,2026-01-31_18h01.29.246,recognitionstage,,2025.1.1,60.529390045751434,2026-01-31 18h02.45.286196 +0530,
,,,15,15,0,21,frames\Vid21_BB_T.png,frames\Vid21_L.png,['r'],1,[5.185849200002849],[None],4,1.0317655999679118,,,,,0,15,15,20,1685.6550403999863,,20,Male,Right handed,Corrected to normal,,,,,,,,,,,,,,,,,,,,,,,,,,,,,,,,,,,,,,,,1685.6373341999715,1685.6550403999863,1685.6550403999863,1685.6550403999863,1685.6550403999863,1685.6550403999863,1685.6550403999863,1690.8567807999789,['r'],1,[5.185849200002849],[None],1690.857617600006,1690.8720196000068,1690.8720196000068,1690.8720196000068,1691.9065310999868,4,1.0317655999679118,4,1.0317655999679118,,,,,,sub114_AB,001,2026-01-31_18h01.29.246,recognitionstage,,2025.1.1,60.529390045751434,2026-01-31 18h02.45.286196 +0530,
,,,16,16,0,17,frames\Vid17_BB_T.png,frames\Vid17_L.png,['l'],1,[5.646349100046791],[None],4,0.9129267000243999,,,,,0,16,16,16,1691.9387419999694,,20,Male,Right handed,Corrected to normal,,,,,,,,,,,,,,,,,,,,,,,,,,,,,,,,,,,,,,,,1691.9319146999624,1691.9387419999694,1691.9387419999694,1691.9387419999694,1691.9387419999694,1691.9387419999694,1691.9387419999694,1697.5920930999564,['l'],1,[5.646349100046791],[None],1697.5936034999904,1697.6197058999678,1697.6197058999678,1697.6197058999678,1698.5222637999686,4,0.9129267000243999,4,0.9129267000243999,,,,,,sub114_AB,001,2026-01-31_18h01.29.246,recognitionstage,,2025.1.1,60.529390045751434,2026-01-31 18h02.45.286196 +0530,
,,,17,17,0,27,frames\Vid27_BB_T.png,frames\Vid27_L.png,['r'],1,[3.1148171999957412],[None],5,1.8972913000034168,,,,,0,17,17,26,1698.542065799993,,20,Male,Right handed,Corrected to normal,,,,,,,,,,,,,,,,,,,,,,,,,,,,,,,,,,,,,,,,1698.5316446999786,1698.542065799993,1698.542065799993,1698.542065799993,1698.542065799993,1698.542065799993,1698.542065799993,1701.674770099984,['r'],1,[3.1148171999957412],[None],1701.6758263999945,1701.6883273999556,1701.6883273999556,1701.6883273999556,1703.5894303999958,5,1.8972913000034168,5,1.8972913000034168,,,,,,sub114_AB,001,2026-01-31_18h01.29.246,recognitionstage,,2025.1.1,60.529390045751434,2026-01-31 18h02.45.286196 +0530,
,,,18,18,0,11,frames\Vid11_EM_T.png,frames\Vid11_L.png,['l'],1,[3.394088200002443],[None],5,0.8980070999823511,,,,,0,18,18,10,1703.6391430000076,,20,Male,Right handed,Corrected to normal,,,,,,,,,,,,,,,,,,,,,,,,,,,,,,,,,,,,,,,,1703.631347299961,1703.6391430000076,1703.6391430000076,1703.6391430000076,1703.6391430000076,1703.6391430000076,1703.6391430000076,1707.0403992999927,['l'],1,[3.394088200002443],[None],1707.0413965999614,1707.0701782999677,1707.0701782999677,1707.0701782999677,1707.9559776000096,5,0.8980070999823511,5,0.8980070999823511,,,,,,sub114_AB,001,2026-01-31_18h01.29.246,recognitionstage,,2025.1.1,60.529390045751434,2026-01-31 18h02.45.286196 +0530,
,,,19,19,0,10,frames\Vid10_BB_T.png,frames\Vid10_L.png,['r'],1,[4.152607699972577],[None],4,1.4482840999844484,,,,,0,19,19,9,1708.0082505999599,,20,Male,Right handed,Corrected to normal,,,,,,,,,,,,,,,,,,,,,,,,,,,,,,,,,,,,,,,,1707.9981120000011,1708.0082505999599,1708.0082505999599,1708.0082505999599,1708.0082505999599,1708.0082505999599,1708.0082505999599,1712.17378740001,['r'],1,[4.152607699972577],[None],1712.1746356000076,1712.1887015000102,1712.1887015000102,1712.1887015000102,1713.6389134000055,4,1.4482840999844484,4,1.4482840999844484,,,,,,sub114_AB,001,2026-01-31_18h01.29.246,recognitionstage,,2025.1.1,60.529390045751434,2026-01-31 18h02.45.286196 +0530,
,,,20,20,0,31,frames\Vid31_EM_T.png,frames\Vid31_L.png,['r'],1,[3.140660199976992],[None],5,1.781938900006935,,,,,0,20,20,30,1713.6604940000107,,20,Male,Right handed,Corrected to normal,,,,,,,,,,,,,,,,,,,,,,,,,,,,,,,,,,,,,,,,1713.648904200003,1713.6604940000107,1713.6604940000107,1713.6604940000107,1713.6604940000107,1713.6604940000107,1713.6604940000107,1716.8076734999777,['r'],1,[3.140660199976992],[None],1716.8085311999894,1716.8370899999863,1716.8370899999863,1716.8370899999863,1718.6056221000035,5,1.781938900006935,5,1.781938900006935,,,,,,sub114_AB,001,2026-01-31_18h01.29.246,recognitionstage,,2025.1.1,60.529390045751434,2026-01-31 18h02.45.286196 +0530,
,,,21,21,0,19,frames\Vid19_BB_T.png,frames\Vid19_L.png,['l'],0,[5.882142499962356],[None],4,1.5149582999874838,,,,,0,21,21,18,1718.6387515999959,,20,Male,Right handed,Corrected to normal,,,,,,,,,,,,,,,,,,,,,,,,,,,,,,,,,,,,,,,,1718.6183299999684,1718.6387515999959,1718.6387515999959,1718.6387515999959,1718.6387515999959,1718.6387515999959,1718.6387515999959,1724.5240018999903,['l'],0,[5.882142499962356],[None],1724.524827199988,1724.5385042999987,1724.5385042999987,1724.5385042999987,1726.0564614000032,4,1.5149582999874838,4,1.5149582999874838,,,,,,sub114_AB,001,2026-01-31_18h01.29.246,recognitionstage,,2025.1.1,60.529390045751434,2026-01-31 18h02.45.286196 +0530,
,,,22,22,0,15,frames\Vid15_BB_T.png,frames\Vid15_L.png,['l'],1,[9.942312699975446],[None],4,0.9316081000142731,,,,,0,22,22,14,1726.1225779000088,,20,Male,Right handed,Corrected to normal,,,,,,,,,,,,,,,,,,,,,,,,,,,,,,,,,,,,,,,,1726.1036194000044,1726.1225779000088,1726.1225779000088,1726.1225779000088,1726.1225779000088,1726.1225779000088,1726.1225779000088,1736.0747115999693,['l'],1,[9.942312699975446],[None],1736.0752118999953,1736.0884705999633,1736.0884705999633,1736.0884705999633,1737.0225555999787,4,0.9316081000142731,4,0.9316081000142731,,,,,,sub114_AB,001,2026-01-31_18h01.29.246,recognitionstage,,2025.1.1,60.529390045751434,2026-01-31 18h02.45.286196 +0530,
,,,23,23,0,1,frames\Vid1_EM_T.png,frames\Vid1_L.png,['l'],1,[7.501140300009865],[None],5,1.4979013000265695,,,,,0,23,23,0,1737.091862500005,,20,Male,Right handed,Corrected to normal,,,,,,,,,,,,,,,,,,,,,,,,,,,,,,,,,,,,,,,,1737.0692803999991,1737.091862500005,1737.091862500005,1737.091862500005,1737.091862500005,1737.091862500005,1737.091862500005,1744.6073430000106,['l'],1,[7.501140300009865],[None],1744.6082810999942,1744.6219752999605,1744.6219752999605,1744.6219752999605,1746.1227761000046,5,1.4979013000265695,5,1.4979013000265695,,,,,,sub114_AB,001,2026-01-31_18h01.29.246,recognitionstage,,2025.1.1,60.529390045751434,2026-01-31 18h02.45.286196 +0530,
,,,24,24,0,26,frames\Vid26_EM_T.png,frames\Vid26_L.png,['r'],1,[4.626158499973826],[None],5,1.048602499999106,,,,,0,24,24,25,1746.1587569999974,,20,Male,Right handed,Corrected to normal,,,,,,,,,,,,,,,,,,,,,,,,,,,,,,,,,,,,,,,,1746.1374008999555,1746.1587569999974,1746.1587569999974,1746.1587569999974,1746.1587569999974,1746.1587569999974,1746.1587569999974,1750.790288499964,['r'],1,[4.626158499973826],[None],1750.791198299965,1750.805537200009,1750.805537200009,1750.805537200009,1751.855817499978,5,1.048602499999106,5,1.048602499999106,,,,,,sub114_AB,001,2026-01-31_18h01.29.246,recognitionstage,,2025.1.1,60.529390045751434,2026-01-31 18h02.45.286196 +0530,
,,,25,25,0,29,frames\Vid29_BB_T.png,frames\Vid29_L.png,['r'],0,[4.224393499956932],[None],5,0.8308695000014268,,,,,0,25,25,28,1751.8884805999696,,20,Male,Right handed,Corrected to normal,,,,,,,,,,,,,,,,,,,,,,,,,,,,,,,,,,,,,,,,1751.8664550000103,1751.8884805999696,1751.8884805999696,1751.8884805999696,1751.8884805999696,1751.8884805999696,1751.8884805999696,1756.1240021999693,['r'],0,[4.224393499956932],[None],1756.1250698000076,1756.1389248999767,1756.1389248999767,1756.1389248999767,1756.972587199998,5,0.8308695000014268,5,0.8308695000014268,,,,,,sub114_AB,001,2026-01-31_18h01.29.246,recognitionstage,,2025.1.1,60.529390045751434,2026-01-31 18h02.45.286196 +0530,
,,,26,26,0,38,frames\Vid38_EM_T.png,frames\Vid38_L.png,['l'],0,[7.32277550001163],[None],4,1.514790199988056,,,,,0,26,26,37,1756.9902264999691,,20,Male,Right handed,Corrected to normal,,,,,,,,,,,,,,,,,,,,,,,,,,,,,,,,,,,,,,,,1756.9812705999939,1756.9902264999691,1756.9902264999691,1756.9902264999691,1756.9902264999691,1756.9902264999691,1756.9902264999691,1764.323921400006,['l'],0,[7.32277550001163],[None],1764.3251358999987,1764.3387162999716,1764.3387162999716,1764.3387162999716,1765.855948499986,4,1.514790199988056,4,1.514790199988056,,,,,,sub114_AB,001,2026-01-31_18h01.29.246,recognitionstage,,2025.1.1,60.529390045751434,2026-01-31 18h02.45.286196 +0530,
,,,27,27,0,8,frames\Vid8_BB_T.png,frames\Vid8_L.png,['l'],1,[3.831525399989914],[None],4,1.0807282000314444,,,,,0,27,27,7,1765.9058826999972,,20,Male,Right handed,Corrected to normal,,,,,,,,,,,,,,,,,,,,,,,,,,,,,,,,,,,,,,,,1765.8938121999963,1765.9058826999972,1765.9058826999972,1765.9058826999972,1765.9058826999972,1765.9058826999972,1765.9058826999972,1769.7412110999576,['l'],1,[3.831525399989914],[None],1769.7424997999915,1769.755380699993,1769.755380699993,1769.755380699993,1770.8390492000035,4,1.0807282000314444,4,1.0807282000314444,,,,,,sub114_AB,001,2026-01-31_18h01.29.246,recognitionstage,,2025.1.1,60.529390045751434,2026-01-31 18h02.45.286196 +0530,
,,,28,28,0,24,frames\Vid24_BB_T.png,frames\Vid24_L.png,['l'],1,[2.854647299973294],[None],4,1.6479954999522306,,,,,0,28,28,23,1770.8742710999795,,20,Male,Right handed,Corrected to normal,,,,,,,,,,,,,,,,,,,,,,,,,,,,,,,,,,,,,,,,1770.850812299992,1770.8742710999795,1770.8742710999795,1770.8742710999795,1770.8742710999795,1770.8742710999795,1770.8742710999795,1773.7413927000016,['l'],1,[2.854647299973294],[None],1773.742870899965,1773.7554240999743,1773.7554240999743,1773.7554240999743,1775.4060558999772,4,1.6479954999522306,4,1.6479954999522306,,,,,,sub114_AB,001,2026-01-31_18h01.29.246,recognitionstage,,2025.1.1,60.529390045751434,2026-01-31 18h02.45.286196 +0530,
,,,29,29,0,13,frames\Vid13_BB_T.png,frames\Vid13_L.png,['r'],1,[4.112949799979106],[None],5,1.5312489999923855,,,,,0,29,29,12,1775.455949999974,,20,Male,Right handed,Corrected to normal,,,,,,,,,,,,,,,,,,,,,,,,,,,,,,,,,,,,,,,,1775.4382404999924,1775.455949999974,1775.455949999974,1775.455949999974,1775.455949999974,1775.455949999974,1775.455949999974,1779.5741685999674,['r'],1,[4.112949799979106],[None],1779.5750864999718,1779.5882792999619,1779.5882792999619,1779.5882792999619,1781.12222879997,5,1.5312489999923855,5,1.5312489999923855,,,,,,sub114_AB,001,2026-01-31_18h01.29.246,recognitionstage,,2025.1.1,60.529390045751434,2026-01-31 18h02.45.286196 +0530,
,,,30,30,0,14,frames\Vid14_BB_T.png,frames\Vid14_L.png,['r'],1,[6.841460199968424],[None],3,1.4485696000047028,,,,,0,30,30,13,1781.191284200002,,20,Male,Right handed,Corrected to normal,,,,,,,,,,,,,,,,,,,,,,,,,,,,,,,,,,,,,,,,1781.1673347000033,1781.191284200002,1781.191284200002,1781.191284200002,1781.191284200002,1781.191284200002,1781.191284200002,1788.039947399986,['r'],1,[6.841460199968424],[None],1788.0407520000008,1788.0557609999669,1788.0557609999669,1788.0557609999669,1789.506154200004,3,1.4485696000047028,3,1.4485696000047028,,,,,,sub114_AB,001,2026-01-31_18h01.29.246,recognitionstage,,2025.1.1,60.529390045751434,2026-01-31 18h02.45.286196 +0530,
,,,31,31,0,6,frames\Vid6_BB_T.png,frames\Vid6_L.png,['r'],1,[5.802378399996087],[None],3,0.8653735000407323,,,,,0,31,31,5,1789.5585087999934,,20,Male,Right handed,Corrected to normal,,,,,,,,,,,,,,,,,,,,,,,,,,,,,,,,,,,,,,,,1789.546762599959,1789.5585087999934,1789.5585087999934,1789.5585087999934,1789.5585087999934,1789.5585087999934,1789.5585087999934,1795.3743453999632,['r'],1,[5.802378399996087],[None],1795.3753526000073,1795.388321299979,1795.388321299979,1795.388321299979,1796.255564399995,3,0.8653735000407323,3,0.8653735000407323,,,,,,sub114_AB,001,2026-01-31_18h01.29.246,recognitionstage,,2025.1.1,60.529390045751434,2026-01-31 18h02.45.286196 +0530,
,,,32,32,0,7,frames\Vid7_EM_T.png,frames\Vid7_L.png,['l'],1,[2.4840944000170566],[None],4,1.8153959999908693,,,,,0,32,32,6,1796.308874099981,,20,Male,Right handed,Corrected to normal,,,,,,,,,,,,,,,,,,,,,,,,,,,,,,,,,,,,,,,,1796.2988043999649,1796.308874099981,1796.308874099981,1796.308874099981,1796.308874099981,1796.308874099981,1796.308874099981,1798.8073895999696,['l'],1,[2.4840944000170566],[None],1798.8082588000107,1798.8220214999747,1798.8220214999747,1798.8220214999747,1800.6391687999712,4,1.8153959999908693,4,1.8153959999908693,,,,,,sub114_AB,001,2026-01-31_18h01.29.246,recognitionstage,,2025.1.1,60.529390045751434,2026-01-31 18h02.45.286196 +0530,
,,,33,33,0,34,frames\Vid34_BB_T.png,frames\Vid34_L.png,['r'],1,[10.564954399946146],[None],4,1.6323978999862447,,,,,0,33,33,33,1800.6599315999774,,20,Male,Right handed,Corrected to normal,,,,,,,,,,,,,,,,,,,,,,,,,,,,,,,,,,,,,,,,1800.64844119997,1800.6599315999774,1800.6599315999774,1800.6599315999774,1800.6599315999774,1800.6599315999774,1800.6599315999774,1811.2399153999868,['r'],1,[10.564954399946146],[None],1811.240771599987,1811.2562757999985,1811.2562757999985,1811.2562757999985,1812.889322299976,4,1.6323978999862447,4,1.6323978999862447,,,,,,sub114_AB,001,2026-01-31_18h01.29.246,recognitionstage,,2025.1.1,60.529390045751434,2026-01-31 18h02.45.286196 +0530,
,,,34,34,0,40,frames\Vid40_EM_T.png,frames\Vid40_L.png,['r'],1,[5.870175199990626],[None],4,1.3630631999694742,,,,,0,34,34,39,1812.9067777000018,,20,Male,Right handed,Corrected to normal,,,,,,,,,,,,,,,,,,,,,,,,,,,,,,,,,,,,,,,,1812.8967522999737,1812.9067777000018,1812.9067777000018,1812.9067777000018,1812.9067777000018,1812.9067777000018,1812.9067777000018,1818.7915170000051,['r'],1,[5.870175199990626],[None],1818.7929720999673,1818.8201628999668,1818.8201628999668,1818.8201628999668,1820.1724399999948,4,1.3630631999694742,4,1.3630631999694742,,,,,,sub114_AB,001,2026-01-31_18h01.29.246,recognitionstage,,2025.1.1,60.529390045751434,2026-01-31 18h02.45.286196 +0530,
,,,35,35,0,20,frames\Vid20_EM_T.png,frames\Vid20_L.png,['l'],1,[3.203009499993641],[None],4,0.9321939999936149,,,,,0,35,35,19,1820.1898870999576,,20,Male,Right handed,Corrected to normal,,,,,,,,,,,,,,,,,,,,,,,,,,,,,,,,,,,,,,,,1820.1782803999959,1820.1898870999576,1820.1898870999576,1820.1898870999576,1820.1898870999576,1820.1898870999576,1820.1898870999576,1823.4070178999682,['l'],1,[3.203009499993641],[None],1823.4075487999944,1823.42170050001,1823.42170050001,1823.42170050001,1824.3555732999812,4,0.9321939999936149,4,0.9321939999936149,,,,,,sub114_AB,001,2026-01-31_18h01.29.246,recognitionstage,,2025.1.1,60.529390045751434,2026-01-31 18h02.45.286196 +0530,
,,,36,36,0,18,frames\Vid18_EM_T.png,frames\Vid18_L.png,['r'],1,[3.7566927000298165],[None],3,1.5982532000052743,,,,,0,36,36,17,1824.3882589999703,,20,Male,Right handed,Corrected to normal,,,,,,,,,,,,,,,,,,,,,,,,,,,,,,,,,,,,,,,,1824.3666235999553,1824.3882589999703,1824.3882589999703,1824.3882589999703,1824.3882589999703,1824.3882589999703,1824.3882589999703,1828.156664799957,['r'],1,[3.7566927000298165],[None],1828.15759409999,1828.1721408999874,1828.1721408999874,1828.1721408999874,1829.7724572999869,3,1.5982532000052743,3,1.5982532000052743,,,,,,sub114_AB,001,2026-01-31_18h01.29.246,recognitionstage,,2025.1.1,60.529390045751434,2026-01-31 18h02.45.286196 +0530,
,,,37,37,0,37,frames\Vid37_BB_T.png,frames\Vid37_L.png,['r'],1,[3.0680103999911807],[None],5,1.9493381000356749,,,,,0,37,37,36,1829.8050928000011,,20,Male,Right handed,Corrected to normal,,,,,,,,,,,,,,,,,,,,,,,,,,,,,,,,,,,,,,,,1829.7832939999644,1829.8050928000011,1829.8050928000011,1829.8050928000011,1829.8050928000011,1829.8050928000011,1829.8050928000011,1832.8905214999686,['r'],1,[3.0680103999911807],[None],1832.891295599984,1832.9049076999654,1832.9049076999654,1832.9049076999654,1834.8560291999602,5,1.9493381000356749,5,1.9493381000356749,,,,,,sub114_AB,001,2026-01-31_18h01.29.246,recognitionstage,,2025.1.1,60.529390045751434,2026-01-31 18h02.45.286196 +0530,
,,,38,38,0,23,frames\Vid23_EM_T.png,frames\Vid23_L.png,['r'],1,[3.6884461999870837],[None],3,1.0979171000071801,,,,,0,38,38,22,1834.8885373999947,,20,Male,Right handed,Corrected to normal,,,,,,,,,,,,,,,,,,,,,,,,,,,,,,,,,,,,,,,,1834.8710184000083,1834.8885373999947,1834.8885373999947,1834.8885373999947,1834.8885373999947,1834.8885373999947,1834.8885373999947,1838.5906300999923,['r'],1,[3.6884461999870837],[None],1838.5915443999693,1838.605332200008,1838.605332200008,1838.605332200008,1839.7058945999597,3,1.0979171000071801,3,1.0979171000071801,,,,,,sub114_AB,001,2026-01-31_18h01.29.246,recognitionstage,,2025.1.1,60.529390045751434,2026-01-31 18h02.45.286196 +0530,
,,,39,39,0,4,frames\Vid4_EM_T.png,frames\Vid4_L.png,['r'],1,[5.084612000035122],[None],4,1.3648540999856777,,,,,0,39,39,3,1839.7724907000083,,20,Male,Right handed,Corrected to normal,,,,,,,,,,,,,,,,,,,,,,,,,,,,,,,,,,,,,,,,1839.749435799953,1839.7724907000083,1839.7724907000083,1839.7724907000083,1839.7724907000083,1839.7724907000083,1839.7724907000083,1844.8574969999609,['r'],1,[5.084612000035122],[None],1844.8582822000026,1844.8716044999892,1844.8716044999892,1844.8716044999892,1846.238915599999,4,1.3648540999856777,4,1.3648540999856777,,,,,,sub114_AB,001,2026-01-31_18h01.29.246,recognitionstage,,2025.1.1,60.529390045751434,2026-01-31 18h02.45.286196 +0530,
,,,,,,,,,,,,,,,,,,,,,,,,,20,Male,Right handed,Corrected to normal,,,,,,,,,,,,,,,,,,,,,,,,,,,,,,,,,,,,,,,,,,,,,,,,,,,,,,,,,,,,,1846.23901879997,1846.2557568000047,1846.2557568000047,1866.2410848999862,None,sub114_AB,001,2026-01-31_18h01.29.246,recognitionstage,,2025.1.1,60.529390045751434,2026-01-31 18h02.45.286196 +0530,
