path,duration,thisN,thisTrialN,thisRepN,movie_id,target_img,lure_img,resp.keys,resp.corr,resp.rt,resp.duration,conf_radio.response,conf_radio.rt,movie.thisRepN,movie.thisTrialN,movie.thisN,movie.thisIndex,recogloop.thisRepN,recogloop.thisTrialN,recogloop.thisN,recogloop.thisIndex,thisRow.t,notes,age,gender,handedness,vision,caffeine_2h,alcohol_smoke_12h,demographics.started,demographics.stopped,Instructions.started,text1.started,key_resp.started,Instructions.stopped,key_resp.keys,key_resp.rt,key_resp.duration,instruction_2.started,text2.started,key_resp_2.started,instruction_2.stopped,key_resp_2.keys,key_resp_2.rt,key_resp_2.duration,Videos.started,movie_2.started,key_resp_6.started,movie_2.stopped,key_resp_6.stopped,Videos.stopped,movie.key_resp_6.keys,ISI.started,text.started,ISI.stopped,text.stopped,movie.key_resp_6.rt,movie.key_resp_6.duration,recognition.started,text_4.started,key_resp_3.started,recognition.stopped,key_resp_3.keys,key_resp_3.rt,key_resp_3.duration,recognition_task.started,leftimage.started,rightimage.started,resp.started,frames_question.started,right_label.started,left_label.started,recognition_task.stopped,recogloop.resp.keys,recogloop.resp.corr,recogloop.resp.rt,recogloop.resp.duration,confidence.started,conf_text.started,conf_radio.started,conf_label.started,confidence.stopped,recogloop.conf_radio.response,recogloop.conf_radio.rt,confidence,confidence_rt,thank_you.started,text_6.started,key_resp_4.started,thank_you.stopped,key_resp_4.keys,participant,session,date,expName,expVersion,psychopyVersion,frameRate,expStart,...101
,,,,,,,,,,,,,,,,,,,,,,,,21,Female,Right handed,Normal,Caffeine consumed in last 2 hours?,Alcohol or smoking in last 12 hours?,0.01753500002087094,0.02168040000833571,,,,,,,,,,,,,,,,,,,,,,,,,,,,,,,,,,,,,,,,,,,,,,,,,,,,,,,,,,,,,sub14_NB,001,2026-01-18_09h03.10.088,recognitionstage,,2025.1.1,60.018749860485045,2026-01-18 09h06.49.235660 +0530,
,,,,,,,,,,,,,,,,,,,,,,,,21,Female,Right handed,Normal,,,,,0.02170430001569912,0.03636880000703968,0.03636880000703968,8.119917900010478,space,8.070504700008314,None,,,,,,,,,,,,,,,,,,,,,,,,,,,,,,,,,,,,,,,,,,,,,,,,,,,,,,sub14_NB,001,2026-01-18_09h03.10.088,recognitionstage,,2025.1.1,60.018749860485045,2026-01-18 09h06.49.235660 +0530,
,,,,,,,,,,,,,,,,,,,,,,,,21,Female,Right handed,Normal,,,,,,,,,,,,8.11995890000253,8.136407200014219,8.136407200014219,15.837665900005959,space,7.698364900017623,None,,,,,,,,,,,,,,,,,,,,,,,,,,,,,,,,,,,,,,,,,,,,,,,sub14_NB,001,2026-01-18_09h03.10.088,recognitionstage,,2025.1.1,60.018749860485045,2026-01-18 09h06.49.235660 +0530,
Trimmed_videos/natural_9.mp4,20,44,44,0,,,,,,,,,,0,44,44,10,,,,,1508.638248800009,,21,Female,Right handed,Normal,,,,,,,,,,,,,,,,,,,1508.5867214000027,1508.638248800009,1508.638248800009,1528.9045659000112,1528.9045659000112,1528.7537294000213,None,1528.8890958000266,1528.9045659000112,1531.3908639000147,1455.121304900007,4.6594802000036,None,1531.3909567000228,1531.406104100024,1531.406104100024,1552.5065176000062,space,21.086972499993863,None,,,,,,,,,,,,,,,,,,,,,,,,,,,sub14_NB,001,2026-01-18_09h03.10.088,recognitionstage,,2025.1.1,60.018749860485045,2026-01-18 09h06.49.235660 +0530,
,,0,0,0,33,frames\Vid33_BB_T.png,frames\Vid33_L.png,['r'],1,[5.715141799999401],[None],5,5.428927900007693,,,,,0,0,0,32,1552.5703095000063,,21,Female,Right handed,Normal,,,,,,,,,,,,,,,,,,,,,,,,,,,,,,,,,,,,,,,1552.5600867000176,1552.5703095000063,1552.5703095000063,1552.5703095000063,1552.5703095000063,1552.5703095000063,1552.5703095000063,1558.292531300016,['r'],1,[5.715141799999401],[None],1558.294052800018,1558.3198834000214,1558.3198834000214,1558.3198834000214,1563.739622699999,5,5.428927900007693,5,5.428927900007693,,,,,,sub14_NB,001,2026-01-18_09h03.10.088,recognitionstage,,2025.1.1,60.018749860485045,2026-01-18 09h06.49.235660 +0530,
,,1,1,0,25,frames\Vid25_BB_T.png,frames\Vid25_L.png,['r'],1,[6.1778035999741405],[None],5,1.5974759999953676,,,,,0,1,1,24,1563.7873481000133,,21,Female,Right handed,Normal,,,,,,,,,,,,,,,,,,,,,,,,,,,,,,,,,,,,,,,1563.7722060000233,1563.7873481000133,1563.7873481000133,1563.7873481000133,1563.7873481000133,1563.7873481000133,1563.7873481000133,1569.9742312000017,['r'],1,[6.1778035999741405],[None],1569.975192700018,1570.0038423000078,1570.0038423000078,1570.0038423000078,1571.5899115000211,5,1.5974759999953676,5,1.5974759999953676,,,,,,sub14_NB,001,2026-01-18_09h03.10.088,recognitionstage,,2025.1.1,60.018749860485045,2026-01-18 09h06.49.235660 +0530,
,,2,2,0,8,frames\Vid8_BB_T.png,frames\Vid8_L.png,['r'],0,[11.116804899997078],[None],5,1.6478719000006095,,,,,0,2,2,7,1571.6725267000147,,21,Female,Right handed,Normal,,,,,,,,,,,,,,,,,,,,,,,,,,,,,,,,,,,,,,,1571.6601814000169,1571.6725267000147,1571.6725267000147,1571.6725267000147,1571.6725267000147,1571.6725267000147,1571.6725267000147,1582.791204500012,['r'],0,[11.116804899997078],[None],1582.7920847000205,1582.8048458000121,1582.8048458000121,1582.8048458000121,1584.4567219000019,5,1.6478719000006095,5,1.6478719000006095,,,,,,sub14_NB,001,2026-01-18_09h03.10.088,recognitionstage,,2025.1.1,60.018749860485045,2026-01-18 09h06.49.235660 +0530,
,,3,3,0,9,frames\Vid9_EM_T.png,frames\Vid9_L.png,['l'],1,[3.5625193000014406],[None],5,1.5647781000006944,,,,,0,3,3,8,1584.554721100023,,21,Female,Right handed,Normal,,,,,,,,,,,,,,,,,,,,,,,,,,,,,,,,,,,,,,,1584.5352247000264,1584.554721100023,1584.554721100023,1584.554721100023,1584.554721100023,1584.554721100023,1584.554721100023,1588.1239089000155,['l'],1,[3.5625193000014406],[None],1588.1245989000017,1588.1389028000121,1588.1389028000121,1588.1389028000121,1589.7065385000024,5,1.5647781000006944,5,1.5647781000006944,,,,,,sub14_NB,001,2026-01-18_09h03.10.088,recognitionstage,,2025.1.1,60.018749860485045,2026-01-18 09h06.49.235660 +0530,
,,4,4,0,5,frames\Vid5_EM_T.png,frames\Vid5_L.png,['l'],0,[5.870088199997554],[None],2,2.965150900010485,,,,,0,4,4,4,1589.77497150001,,21,Female,Right handed,Normal,,,,,,,,,,,,,,,,,,,,,,,,,,,,,,,,,,,,,,,1589.755710700003,1589.77497150001,1589.77497150001,1589.77497150001,1589.77497150001,1589.77497150001,1589.77497150001,1595.6572160000214,['l'],0,[5.870088199997554],[None],1595.6580014000065,1595.6718760000076,1595.6718760000076,1595.6718760000076,1598.6397442000161,2,2.965150900010485,2,2.965150900010485,,,,,,sub14_NB,001,2026-01-18_09h03.10.088,recognitionstage,,2025.1.1,60.018749860485045,2026-01-18 09h06.49.235660 +0530,
,,5,5,0,20,frames\Vid20_EM_T.png,frames\Vid20_L.png,['r'],1,[3.026779899984831],[None],5,2.130226999986917,,,,,0,5,5,19,1598.690828700026,,21,Female,Right handed,Normal,,,,,,,,,,,,,,,,,,,,,,,,,,,,,,,,,,,,,,,1598.6685148000252,1598.690828700026,1598.690828700026,1598.690828700026,1598.690828700026,1598.690828700026,1598.690828700026,1601.7250579000101,['r'],1,[3.026779899984831],[None],1601.726139300008,1601.738638800016,1601.738638800016,1601.738638800016,1603.8729291000054,5,2.130226999986917,5,2.130226999986917,,,,,,sub14_NB,001,2026-01-18_09h03.10.088,recognitionstage,,2025.1.1,60.018749860485045,2026-01-18 09h06.49.235660 +0530,
,,6,6,0,29,frames\Vid29_BB_T.png,frames\Vid29_L.png,['r'],1,[4.771427200001199],[None],5,1.199590599979274,,,,,0,6,6,28,1603.921749800007,,21,Female,Right handed,Normal,,,,,,,,,,,,,,,,,,,,,,,,,,,,,,,,,,,,,,,1603.9047357000236,1603.921749800007,1603.921749800007,1603.921749800007,1603.921749800007,1603.921749800007,1603.921749800007,1608.7070720000193,['r'],1,[4.771427200001199],[None],1608.708105000027,1608.7218305999995,1608.7218305999995,1608.7218305999995,1609.922575100005,5,1.199590599979274,5,1.199590599979274,,,,,,sub14_NB,001,2026-01-18_09h03.10.088,recognitionstage,,2025.1.1,60.018749860485045,2026-01-18 09h06.49.235660 +0530,
,,7,7,0,10,frames\Vid10_BB_T.png,frames\Vid10_L.png,['r'],1,[6.511447400000179],[None],4,3.2481912999937776,,,,,0,7,7,9,1610.0059390000242,,21,Female,Right handed,Normal,,,,,,,,,,,,,,,,,,,,,,,,,,,,,,,,,,,,,,,1609.9895533000235,1610.0059390000242,1610.0059390000242,1610.0059390000242,1610.0059390000242,1610.0059390000242,1610.0059390000242,1616.5235431000183,['r'],1,[6.511447400000179],[None],1616.524327400024,1616.5382976000255,1616.5382976000255,1616.5382976000255,1619.7897188000206,4,3.2481912999937776,4,3.2481912999937776,,,,,,sub14_NB,001,2026-01-18_09h03.10.088,recognitionstage,,2025.1.1,60.018749860485045,2026-01-18 09h06.49.235660 +0530,
,,8,8,0,1,frames\Vid1_EM_T.png,frames\Vid1_L.png,['r'],1,[4.865318500000285],[None],5,1.9480686000024434,,,,,0,8,8,0,1619.875763100019,,21,Female,Right handed,Normal,,,,,,,,,,,,,,,,,,,,,,,,,,,,,,,,,,,,,,,1619.859041800024,1619.875763100019,1619.875763100019,1619.875763100019,1619.875763100019,1619.875763100019,1619.875763100019,1624.7572796000168,['r'],1,[4.865318500000285],[None],1624.758040900022,1624.7716452000022,1624.7716452000022,1624.7716452000022,1626.7229438000068,5,1.9480686000024434,5,1.9480686000024434,,,,,,sub14_NB,001,2026-01-18_09h03.10.088,recognitionstage,,2025.1.1,60.018749860485045,2026-01-18 09h06.49.235660 +0530,
,,9,9,0,34,frames\Vid34_BB_T.png,frames\Vid34_L.png,['l'],1,[9.542534800013527],[None],5,0.9645246000145562,,,,,0,9,9,33,1626.775122000021,,21,Female,Right handed,Normal,,,,,,,,,,,,,,,,,,,,,,,,,,,,,,,,,,,,,,,1626.751129500015,1626.775122000021,1626.775122000021,1626.775122000021,1626.775122000021,1626.775122000021,1626.775122000021,1636.3246481000097,['l'],1,[9.542534800013527],[None],1636.3255703000177,1636.338312500011,1636.338312500011,1636.338312500011,1637.3060141000024,5,0.9645246000145562,5,0.9645246000145562,,,,,,sub14_NB,001,2026-01-18_09h03.10.088,recognitionstage,,2025.1.1,60.018749860485045,2026-01-18 09h06.49.235660 +0530,
,,10,10,0,11,frames\Vid11_EM_T.png,frames\Vid11_L.png,['l'],1,[3.592228499997873],[None],5,1.0315613000129815,,,,,0,10,10,10,1637.3890561000153,,21,Female,Right handed,Normal,,,,,,,,,,,,,,,,,,,,,,,,,,,,,,,,,,,,,,,1637.3706776000035,1637.3890561000153,1637.3890561000153,1637.3890561000153,1637.3890561000153,1637.3890561000153,1637.3890561000153,1640.9901368000137,['l'],1,[3.592228499997873],[None],1640.9910458000086,1641.005463700014,1641.005463700014,1641.005463700014,1642.0391178000136,5,1.0315613000129815,5,1.0315613000129815,,,,,,sub14_NB,001,2026-01-18_09h03.10.088,recognitionstage,,2025.1.1,60.018749860485045,2026-01-18 09h06.49.235660 +0530,
,,11,11,0,4,frames\Vid4_EM_T.png,frames\Vid4_L.png,['r'],0,[28.51153190000332],[None],5,2.614928700000746,,,,,0,11,11,3,1642.1417256999994,,21,Female,Right handed,Normal,,,,,,,,,,,,,,,,,,,,,,,,,,,,,,,,,,,,,,,1642.1250492000254,1642.1417256999994,1642.1417256999994,1642.1417256999994,1642.1417256999994,1642.1417256999994,1642.1417256999994,1670.6570175000234,['r'],0,[28.51153190000332],[None],1670.6578191000153,1670.6716531000275,1670.6716531000275,1670.6716531000275,1673.2898147000233,5,2.614928700000746,5,2.614928700000746,,,,,,sub14_NB,001,2026-01-18_09h03.10.088,recognitionstage,,2025.1.1,60.018749860485045,2026-01-18 09h06.49.235660 +0530,
,,12,12,0,27,frames\Vid27_BB_T.png,frames\Vid27_L.png,['l'],1,[2.4077823999978136],[None],5,1.0320046999840997,,,,,0,12,12,26,1673.3414568000007,,21,Female,Right handed,Normal,,,,,,,,,,,,,,,,,,,,,,,,,,,,,,,,,,,,,,,1673.323142600013,1673.3414568000007,1673.3414568000007,1673.3414568000007,1673.3414568000007,1673.3414568000007,1673.3414568000007,1675.7573588000087,['l'],1,[2.4077823999978136],[None],1675.7581708000216,1675.7718362000014,1675.7718362000014,1675.7718362000014,1676.8055885000213,5,1.0320046999840997,5,1.0320046999840997,,,,,,sub14_NB,001,2026-01-18_09h03.10.088,recognitionstage,,2025.1.1,60.018749860485045,2026-01-18 09h06.49.235660 +0530,
,,13,13,0,35,frames\Vid35_EM_T.png,frames\Vid35_L.png,['l'],1,[3.926182700000936],[None],5,0.9486909999977797,,,,,0,13,13,34,1676.8550772000162,,21,Female,Right handed,Normal,,,,,,,,,,,,,,,,,,,,,,,,,,,,,,,,,,,,,,,1676.834351700003,1676.8550772000162,1676.8550772000162,1676.8550772000162,1676.8550772000162,1676.8550772000162,1676.8550772000162,1680.790062200016,['l'],1,[3.926182700000936],[None],1680.7909532000194,1680.805508200021,1680.805508200021,1680.805508200021,1681.7560241000028,5,0.9486909999977797,5,0.9486909999977797,,,,,,sub14_NB,001,2026-01-18_09h03.10.088,recognitionstage,,2025.1.1,60.018749860485045,2026-01-18 09h06.49.235660 +0530,
,,14,14,0,3,frames\Vid3_BB_T.png,frames\Vid3_L.png,['l'],1,[3.686887599993497],[None],5,0.947913999989396,,,,,0,14,14,2,1681.8223616000032,,21,Female,Right handed,Normal,,,,,,,,,,,,,,,,,,,,,,,,,,,,,,,,,,,,,,,1681.8137702000095,1681.8223616000032,1681.8223616000032,1681.8223616000032,1681.8223616000032,1681.8223616000032,1681.8223616000032,1685.5240691000072,['l'],1,[3.686887599993497],[None],1685.525011300022,1685.5387868000253,1685.5387868000253,1685.5387868000253,1686.4891891000152,5,0.947913999989396,5,0.947913999989396,,,,,,sub14_NB,001,2026-01-18_09h03.10.088,recognitionstage,,2025.1.1,60.018749860485045,2026-01-18 09h06.49.235660 +0530,
,,15,15,0,7,frames\Vid7_EM_T.png,frames\Vid7_L.png,['l'],1,[4.342418700020062],[None],5,0.847544000018388,,,,,0,15,15,6,1686.5752655000251,,21,Female,Right handed,Normal,,,,,,,,,,,,,,,,,,,,,,,,,,,,,,,,,,,,,,,1686.5514420000254,1686.5752655000251,1686.5752655000251,1686.5752655000251,1686.5752655000251,1686.5752655000251,1686.5752655000251,1690.9245788000117,['l'],1,[4.342418700020062],[None],1690.9254766000086,1690.938556100009,1690.938556100009,1690.938556100009,1691.7899286000174,5,0.847544000018388,5,0.847544000018388,,,,,,sub14_NB,001,2026-01-18_09h03.10.088,recognitionstage,,2025.1.1,60.018749860485045,2026-01-18 09h06.49.235660 +0530,
,,16,16,0,15,frames\Vid15_BB_T.png,frames\Vid15_L.png,['l'],1,[4.913838700013002],[None],5,1.0486842000100296,,,,,0,16,16,14,1691.8754620000254,,21,Female,Right handed,Normal,,,,,,,,,,,,,,,,,,,,,,,,,,,,,,,,,,,,,,,1691.8645412000187,1691.8754620000254,1691.8754620000254,1691.8754620000254,1691.8754620000254,1691.8754620000254,1691.8754620000254,1696.790717900003,['l'],1,[4.913838700013002],[None],1696.7915998000244,1696.820258700027,1696.820258700027,1696.820258700027,1697.8557972000272,5,1.0486842000100296,5,1.0486842000100296,,,,,,sub14_NB,001,2026-01-18_09h03.10.088,recognitionstage,,2025.1.1,60.018749860485045,2026-01-18 09h06.49.235660 +0530,
,,17,17,0,6,frames\Vid6_BB_T.png,frames\Vid6_L.png,['r'],1,[4.415137899981346],[None],5,4.647172099997988,,,,,0,17,17,5,1697.9422363000049,,21,Female,Right handed,Normal,,,,,,,,,,,,,,,,,,,,,,,,,,,,,,,,,,,,,,,1697.9204953000008,1697.9422363000049,1697.9422363000049,1697.9422363000049,1697.9422363000049,1697.9422363000049,1697.9422363000049,1702.3579748000193,['r'],1,[4.415137899981346],[None],1702.3589491000166,1702.371896000026,1702.371896000026,1702.371896000026,1707.0233895000129,5,4.647172099997988,5,4.647172099997988,,,,,,sub14_NB,001,2026-01-18_09h03.10.088,recognitionstage,,2025.1.1,60.018749860485045,2026-01-18 09h06.49.235660 +0530,
,,18,18,0,17,frames\Vid17_BB_T.png,frames\Vid17_L.png,['l'],1,[14.217584300000453],[None],1,2.3649879000149667,,,,,0,18,18,16,1707.0757541000203,,21,Female,Right handed,Normal,,,,,,,,,,,,,,,,,,,,,,,,,,,,,,,,,,,,,,,1707.064082900004,1707.0757541000203,1707.0757541000203,1707.0757541000203,1707.0757541000203,1707.0757541000203,1707.0757541000203,1721.3071142000263,['l'],1,[14.217584300000453],[None],1721.3081288000103,1721.3221825000073,1721.3221825000073,1721.3221825000073,1723.689286000008,1,2.3649879000149667,1,2.3649879000149667,,,,,,sub14_NB,001,2026-01-18_09h03.10.088,recognitionstage,,2025.1.1,60.018749860485045,2026-01-18 09h06.49.235660 +0530,
,,19,19,0,2,frames\Vid2_BB_T.png,frames\Vid2_L.png,['l'],1,[3.51197819999652],[None],5,2.4808857000025455,,,,,0,19,19,1,1723.7574438000156,,21,Female,Right handed,Normal,,,,,,,,,,,,,,,,,,,,,,,,,,,,,,,,,,,,,,,1723.7480112000194,1723.7574438000156,1723.7574438000156,1723.7574438000156,1723.7574438000156,1723.7574438000156,1723.7574438000156,1727.2744212000107,['l'],1,[3.51197819999652],[None],1727.2753701000183,1727.288514600019,1727.288514600019,1727.288514600019,1729.7729931000213,5,2.4808857000025455,5,2.4808857000025455,,,,,,sub14_NB,001,2026-01-18_09h03.10.088,recognitionstage,,2025.1.1,60.018749860485045,2026-01-18 09h06.49.235660 +0530,
,,20,20,0,18,frames\Vid18_EM_T.png,frames\Vid18_L.png,['l'],1,[5.5882520000159275],[None],5,1.4482527000072878,,,,,0,20,20,17,1729.8251613000175,,21,Female,Right handed,Normal,,,,,,,,,,,,,,,,,,,,,,,,,,,,,,,,,,,,,,,1729.8020456000231,1729.8251613000175,1729.8251613000175,1729.8251613000175,1729.8251613000175,1729.8251613000175,1729.8251613000175,1735.4240097000147,['l'],1,[5.5882520000159275],[None],1735.4250125000253,1735.4388883000065,1735.4388883000065,1735.4388883000065,1736.8889713000099,5,1.4482527000072878,5,1.4482527000072878,,,,,,sub14_NB,001,2026-01-18_09h03.10.088,recognitionstage,,2025.1.1,60.018749860485045,2026-01-18 09h06.49.235660 +0530,
,,21,21,0,26,frames\Vid26_EM_T.png,frames\Vid26_L.png,['l'],0,[20.457897499989485],[None],3,2.714687799976673,,,,,0,21,21,25,1736.9555619000166,,21,Female,Right handed,Normal,,,,,,,,,,,,,,,,,,,,,,,,,,,,,,,,,,,,,,,1736.9398632000084,1736.9555619000166,1736.9555619000166,1736.9555619000166,1736.9555619000166,1736.9555619000166,1736.9555619000166,1757.4243160000187,['l'],0,[20.457897499989485],[None],1757.425312300009,1757.4387957,1757.4387957,1757.4387957,1760.1556612999993,3,2.714687799976673,3,2.714687799976673,,,,,,sub14_NB,001,2026-01-18_09h03.10.088,recognitionstage,,2025.1.1,60.018749860485045,2026-01-18 09h06.49.235660 +0530,
,,22,22,0,22,frames\Vid22_EM_T.png,frames\Vid22_L.png,['l'],1,[3.1530142000119668],[None],5,2.2484630000253674,,,,,0,22,22,21,1760.1889736000157,,21,Female,Right handed,Normal,,,,,,,,,,,,,,,,,,,,,,,,,,,,,,,,,,,,,,,1760.1824784000055,1760.1889736000157,1760.1889736000157,1760.1889736000157,1760.1889736000157,1760.1889736000157,1760.1889736000157,1763.357436900027,['l'],1,[3.1530142000119668],[None],1763.358364100015,1763.3726898000168,1763.3726898000168,1763.3726898000168,1765.622417800012,5,2.2484630000253674,5,2.2484630000253674,,,,,,sub14_NB,001,2026-01-18_09h03.10.088,recognitionstage,,2025.1.1,60.018749860485045,2026-01-18 09h06.49.235660 +0530,
,,23,23,0,37,frames\Vid37_BB_T.png,frames\Vid37_L.png,['l'],1,[2.3411094000039157],[None],5,1.2804647000157274,,,,,0,23,23,36,1765.6723354000133,,21,Female,Right handed,Normal,,,,,,,,,,,,,,,,,,,,,,,,,,,,,,,,,,,,,,,1765.6505455000151,1765.6723354000133,1765.6723354000133,1765.6723354000133,1765.6723354000133,1765.6723354000133,1765.6723354000133,1768.0247781000216,['l'],1,[2.3411094000039157],[None],1768.0258372000244,1768.0383896000276,1768.0383896000276,1768.0383896000276,1769.322960600024,5,1.2804647000157274,5,1.2804647000157274,,,,,,sub14_NB,001,2026-01-18_09h03.10.088,recognitionstage,,2025.1.1,60.018749860485045,2026-01-18 09h06.49.235660 +0530,
,,24,24,0,36,frames\Vid36_BB_T.png,frames\Vid36_L.png,['r'],1,[4.7453080999839585],[None],3,2.863578500022413,,,,,0,24,24,35,1769.3722558000009,,21,Female,Right handed,Normal,,,,,,,,,,,,,,,,,,,,,,,,,,,,,,,,,,,,,,,1769.3499217000208,1769.3722558000009,1769.3722558000009,1769.3722558000009,1769.3722558000009,1769.3722558000009,1769.3722558000009,1774.125271100027,['r'],1,[4.7453080999839585],[None],1774.1266851000255,1774.138574200013,1774.138574200013,1774.138574200013,1777.005729299999,3,2.863578500022413,3,2.863578500022413,,,,,,sub14_NB,001,2026-01-18_09h03.10.088,recognitionstage,,2025.1.1,60.018749860485045,2026-01-18 09h06.49.235660 +0530,
,,25,25,0,19,frames\Vid19_BB_T.png,frames\Vid19_L.png,['l'],0,[6.926605799992103],[None],3,2.4152180000091903,,,,,0,25,25,18,1777.0388392000168,,21,Female,Right handed,Normal,,,,,,,,,,,,,,,,,,,,,,,,,,,,,,,,,,,,,,,1777.0330174000119,1777.0388392000168,1777.0388392000168,1777.0388392000168,1777.0388392000168,1777.0388392000168,1777.0388392000168,1783.9736971000093,['l'],0,[6.926605799992103],[None],1783.9746540000197,1783.9891067999997,1783.9891067999997,1783.9891067999997,1786.4060228000162,3,2.4152180000091903,3,2.4152180000091903,,,,,,sub14_NB,001,2026-01-18_09h03.10.088,recognitionstage,,2025.1.1,60.018749860485045,2026-01-18 09h06.49.235660 +0530,
,,26,26,0,23,frames\Vid23_EM_T.png,frames\Vid23_L.png,['l'],1,[6.8055809999932535],[None],4,1.76606290001655,,,,,0,26,26,22,1786.4559575000021,,21,Female,Right handed,Normal,,,,,,,,,,,,,,,,,,,,,,,,,,,,,,,,,,,,,,,1786.4386147000187,1786.4559575000021,1786.4559575000021,1786.4559575000021,1786.4559575000021,1786.4559575000021,1786.4559575000021,1793.273718100012,['l'],1,[6.8055809999932535],[None],1793.274267300003,1793.2885978000122,1793.2885978000122,1793.2885978000122,1795.0559983000276,4,1.76606290001655,4,1.76606290001655,,,,,,sub14_NB,001,2026-01-18_09h03.10.088,recognitionstage,,2025.1.1,60.018749860485045,2026-01-18 09h06.49.235660 +0530,
,,27,27,0,30,frames\Vid30_EM_T.png,frames\Vid30_L.png,['r'],1,[13.620191399997566],[None],3,1.7459279000177048,,,,,0,27,27,29,1795.1054978000175,,21,Female,Right handed,Normal,,,,,,,,,,,,,,,,,,,,,,,,,,,,,,,,,,,,,,,1795.0846720000263,1795.1054978000175,1795.1054978000175,1795.1054978000175,1795.1054978000175,1795.1054978000175,1795.1054978000175,1808.7263334000017,['r'],1,[13.620191399997566],[None],1808.7276031000074,1808.7536464000004,1808.7536464000004,1808.7536464000004,1810.488955800014,3,1.7459279000177048,3,1.7459279000177048,,,,,,sub14_NB,001,2026-01-18_09h03.10.088,recognitionstage,,2025.1.1,60.018749860485045,2026-01-18 09h06.49.235660 +0530,
,,28,28,0,16,frames\Vid16_EM_T.png,frames\Vid16_L.png,['r'],0,[11.921306900010677],[None],3,1.2644663999963086,,,,,0,28,28,15,1810.556149000011,,21,Female,Right handed,Normal,,,,,,,,,,,,,,,,,,,,,,,,,,,,,,,,,,,,,,,1810.5481215000036,1810.556149000011,1810.556149000011,1810.556149000011,1810.556149000011,1810.556149000011,1810.556149000011,1822.4908499000012,['r'],0,[11.921306900010677],[None],1822.4916440000234,1822.505872800015,1822.505872800015,1822.505872800015,1823.7727850000083,3,1.2644663999963086,3,1.2644663999963086,,,,,,sub14_NB,001,2026-01-18_09h03.10.088,recognitionstage,,2025.1.1,60.018749860485045,2026-01-18 09h06.49.235660 +0530,
,,29,29,0,28,frames\Vid28_EM_T.png,frames\Vid28_L.png,['r'],1,[2.4766223000187892],[None],5,1.314151500002481,,,,,0,29,29,27,1823.8250400000252,,21,Female,Right handed,Normal,,,,,,,,,,,,,,,,,,,,,,,,,,,,,,,,,,,,,,,1823.814939600008,1823.8250400000252,1823.8250400000252,1823.8250400000252,1823.8250400000252,1823.8250400000252,1823.8250400000252,1826.308061400021,['r'],1,[2.4766223000187892],[None],1826.3089084000094,1826.3221074000176,1826.3221074000176,1826.3221074000176,1827.639501000027,5,1.314151500002481,5,1.314151500002481,,,,,,sub14_NB,001,2026-01-18_09h03.10.088,recognitionstage,,2025.1.1,60.018749860485045,2026-01-18 09h06.49.235660 +0530,
,,30,30,0,32,frames\Vid32_EM_T.png,frames\Vid32_L.png,['r'],1,[2.588722000014968],[None],5,1.2124093000020366,,,,,0,30,30,31,1827.6887827000173,,21,Female,Right handed,Normal,,,,,,,,,,,,,,,,,,,,,,,,,,,,,,,,,,,,,,,1827.6680281000154,1827.6887827000173,1827.6887827000173,1827.6887827000173,1827.6887827000173,1827.6887827000173,1827.6887827000173,1830.292568200006,['r'],1,[2.588722000014968],[None],1830.2944991000113,1830.305921400024,1830.305921400024,1830.305921400024,1831.523033400008,5,1.2124093000020366,5,1.2124093000020366,,,,,,sub14_NB,001,2026-01-18_09h03.10.088,recognitionstage,,2025.1.1,60.018749860485045,2026-01-18 09h06.49.235660 +0530,
,,31,31,0,14,frames\Vid14_BB_T.png,frames\Vid14_L.png,['l'],1,[4.103057100001024],[None],5,0.6134919000032824,,,,,0,31,31,13,1831.6064628000022,,21,Female,Right handed,Normal,,,,,,,,,,,,,,,,,,,,,,,,,,,,,,,,,,,,,,,1831.5852622000093,1831.6064628000022,1831.6064628000022,1831.6064628000022,1831.6064628000022,1831.6064628000022,1831.6064628000022,1835.725596400007,['l'],1,[4.103057100001024],[None],1835.7267029000213,1835.754077300022,1835.754077300022,1835.754077300022,1836.3558539000223,5,0.6134919000032824,5,0.6134919000032824,,,,,,sub14_NB,001,2026-01-18_09h03.10.088,recognitionstage,,2025.1.1,60.018749860485045,2026-01-18 09h06.49.235660 +0530,
,,32,32,0,38,frames\Vid38_EM_T.png,frames\Vid38_L.png,['r'],0,[12.110199199989438],[None],4,2.0821329999889713,,,,,0,32,32,37,1836.391561299999,,21,Female,Right handed,Normal,,,,,,,,,,,,,,,,,,,,,,,,,,,,,,,,,,,,,,,1836.3829772000026,1836.391561299999,1836.391561299999,1836.391561299999,1836.391561299999,1836.391561299999,1836.391561299999,1848.5078206000035,['r'],0,[12.110199199989438],[None],1848.5086142000218,1848.5219206000038,1848.5219206000038,1848.5219206000038,1850.6069334000058,4,2.0821329999889713,4,2.0821329999889713,,,,,,sub14_NB,001,2026-01-18_09h03.10.088,recognitionstage,,2025.1.1,60.018749860485045,2026-01-18 09h06.49.235660 +0530,
,,33,33,0,39,frames\Vid39_BB_T.png,frames\Vid39_L.png,['l'],1,[6.190622199996142],[None],5,1.6644969999906607,,,,,0,33,33,38,1850.6390277000028,,21,Female,Right handed,Normal,,,,,,,,,,,,,,,,,,,,,,,,,,,,,,,,,,,,,,,1850.6297521000088,1850.6390277000028,1850.6390277000028,1850.6390277000028,1850.6390277000028,1850.6390277000028,1850.6390277000028,1856.8410991000128,['l'],1,[6.190622199996142],[None],1856.8420819000166,1856.855643900024,1856.855643900024,1856.855643900024,1858.5238932000066,5,1.6644969999906607,5,1.6644969999906607,,,,,,sub14_NB,001,2026-01-18_09h03.10.088,recognitionstage,,2025.1.1,60.018749860485045,2026-01-18 09h06.49.235660 +0530,
,,34,34,0,31,frames\Vid31_EM_T.png,frames\Vid31_L.png,['r'],1,[3.0815512999834027],[None],5,0.864654699980747,,,,,0,34,34,30,1858.572010600008,,21,Female,Right handed,Normal,,,,,,,,,,,,,,,,,,,,,,,,,,,,,,,,,,,,,,,1858.5518907000078,1858.572010600008,1858.572010600008,1858.572010600008,1858.572010600008,1858.572010600008,1858.572010600008,1861.6578697000223,['r'],1,[3.0815512999834027],[None],1861.6586313000007,1861.6720040000218,1861.6720040000218,1861.6720040000218,1862.539844200015,5,0.864654699980747,5,0.864654699980747,,,,,,sub14_NB,001,2026-01-18_09h03.10.088,recognitionstage,,2025.1.1,60.018749860485045,2026-01-18 09h06.49.235660 +0530,
,,35,35,0,13,frames\Vid13_BB_T.png,frames\Vid13_L.png,['r'],1,[2.8545726999873295],[None],5,0.6307227999786846,,,,,0,35,35,12,1862.6231151000247,,21,Female,Right handed,Normal,,,,,,,,,,,,,,,,,,,,,,,,,,,,,,,,,,,,,,,1862.6123403000238,1862.6231151000247,1862.6231151000247,1862.6231151000247,1862.6231151000247,1862.6231151000247,1862.6231151000247,1865.4914700000081,['r'],1,[2.8545726999873295],[None],1865.492544800014,1865.5057296000014,1865.5057296000014,1865.5057296000014,1866.140494500025,5,0.6307227999786846,5,0.6307227999786846,,,,,,sub14_NB,001,2026-01-18_09h03.10.088,recognitionstage,,2025.1.1,60.018749860485045,2026-01-18 09h06.49.235660 +0530,
,,36,36,0,40,frames\Vid40_EM_T.png,frames\Vid40_L.png,['r'],1,[3.7909152999927755],[None],5,1.247947199997725,,,,,0,36,36,39,1866.174711700005,,21,Female,Right handed,Normal,,,,,,,,,,,,,,,,,,,,,,,,,,,,,,,,,,,,,,,1866.166085600009,1866.174711700005,1866.174711700005,1866.174711700005,1866.174711700005,1866.174711700005,1866.174711700005,1869.9742811000033,['r'],1,[3.7909152999927755],[None],1869.9754353000026,1869.989107100002,1869.989107100002,1869.989107100002,1871.2393332000065,5,1.247947199997725,5,1.247947199997725,,,,,,sub14_NB,001,2026-01-18_09h03.10.088,recognitionstage,,2025.1.1,60.018749860485045,2026-01-18 09h06.49.235660 +0530,
,,37,37,0,21,frames\Vid21_BB_T.png,frames\Vid21_L.png,['l'],1,[4.21294259998831],[None],5,1.0802801999961957,,,,,0,37,37,20,1871.2887855000154,,21,Female,Right handed,Normal,,,,,,,,,,,,,,,,,,,,,,,,,,,,,,,,,,,,,,,1871.2697556000203,1871.2887855000154,1871.2887855000154,1871.2887855000154,1871.2887855000154,1871.2887855000154,1871.2887855000154,1875.5088733000157,['l'],1,[4.21294259998831],[None],1875.5102328000066,1875.5220131000096,1875.5220131000096,1875.5220131000096,1876.606707400002,5,1.0802801999961957,5,1.0802801999961957,,,,,,sub14_NB,001,2026-01-18_09h03.10.088,recognitionstage,,2025.1.1,60.018749860485045,2026-01-18 09h06.49.235660 +0530,
,,38,38,0,12,frames\Vid12_EM_T.png,frames\Vid12_L.png,['r'],1,[2.939841699990211],[None],5,0.813563499978045,,,,,0,38,38,11,1876.689891600021,,21,Female,Right handed,Normal,,,,,,,,,,,,,,,,,,,,,,,,,,,,,,,,,,,,,,,1876.670404000004,1876.689891600021,1876.689891600021,1876.689891600021,1876.689891600021,1876.689891600021,1876.689891600021,1879.6419044000213,['r'],1,[2.939841699990211],[None],1879.6430764000106,1879.6552874000045,1879.6552874000045,1879.6552874000045,1880.4729464000266,5,0.813563499978045,5,0.813563499978045,,,,,,sub14_NB,001,2026-01-18_09h03.10.088,recognitionstage,,2025.1.1,60.018749860485045,2026-01-18 09h06.49.235660 +0530,
,,39,39,0,24,frames\Vid24_BB_T.png,frames\Vid24_L.png,['l'],1,[2.7272272999980487],[None],5,0.5487767000158783,,,,,0,39,39,23,1880.5103859000083,,21,Female,Right handed,Normal,,,,,,,,,,,,,,,,,,,,,,,,,,,,,,,,,,,,,,,1880.4993361000088,1880.5103859000083,1880.5103859000083,1880.5103859000083,1880.5103859000083,1880.5103859000083,1880.5103859000083,1883.2406500000216,['l'],1,[2.7272272999980487],[None],1883.2415295000246,1883.2558588000247,1883.2558588000247,1883.2558588000247,1883.8059014000173,5,0.5487767000158783,5,0.5487767000158783,,,,,,sub14_NB,001,2026-01-18_09h03.10.088,recognitionstage,,2025.1.1,60.018749860485045,2026-01-18 09h06.49.235660 +0530,
,,,,,,,,,,,,,,,,,,,,,,,,21,Female,Right handed,Normal,,,,,,,,,,,,,,,,,,,,,,,,,,,,,,,,,,,,,,,,,,,,,,,,,,,,,,,,,,,,1883.8059880000073,1883.823196500016,1883.823196500016,1903.8063789000153,None,sub14_NB,001,2026-01-18_09h03.10.088,recognitionstage,,2025.1.1,60.018749860485045,2026-01-18 09h06.49.235660 +0530,
