path,duration,is_repeat,thisN,thisTrialN,thisRepN,movie_id,target_img,lure_img,resp.keys,resp.corr,resp.rt,resp.duration,conf_radio.response,conf_radio.rt,movie.thisRepN,movie.thisTrialN,movie.thisN,movie.thisIndex,recogloop.thisRepN,recogloop.thisTrialN,recogloop.thisN,recogloop.thisIndex,thisRow.t,notes,age,gender,handedness,vision,caffeine_2h,alcohol_smoke_12h,demographics.started,demographics.stopped,Instructions.started,text1.started,key_resp.started,Instructions.stopped,key_resp.keys,key_resp.rt,key_resp.duration,instruction_2.started,text2.started,key_resp_2.started,instruction_2.stopped,key_resp_2.keys,key_resp_2.rt,key_resp_2.duration,Videos.started,movie_2.started,vigilance_resp.started,movie_2.stopped,Videos.stopped,movie.vigilance_resp.keys,vigilance_pressed,vigilance_correct,ISI.started,text.started,ISI.stopped,text.stopped,movie.vigilance_resp.rt,movie.vigilance_resp.duration,recognition.started,text_4.started,key_resp_3.started,recognition.stopped,key_resp_3.keys,key_resp_3.rt,key_resp_3.duration,recognition_task.started,leftimage.started,rightimage.started,resp.started,frames_question.started,right_label.started,left_label.started,recognition_task.stopped,recogloop.resp.keys,recogloop.resp.corr,recogloop.resp.rt,recogloop.resp.duration,confidence.started,conf_text.started,conf_radio.started,conf_label.started,confidence.stopped,recogloop.conf_radio.response,recogloop.conf_radio.rt,confidence,confidence_rt,thank_you.started,text_6.started,key_resp_4.started,thank_you.stopped,key_resp_4.keys,participant,session,date,expName,expVersion,psychopyVersion,frameRate,expStart,...103
,,,,,,,,,,,,,,,,,,,,,,,,,23,Female,Right handed,Corrected to normal,Caffeine consumed in last 2 hours?,Alcohol or smoking in last 12 hours?,0.015733999985968694,0.018150299991248176,,,,,,,,,,,,,,,,,,,,,,,,,,,,,,,,,,,,,,,,,,,,,,,,,,,,,,,,,,,,,,sub129_AB,001,2026-02-02_13h23.31.011,recognitionstage,,2025.1.1,59.76514687690334,2026-02-02 13h24.23.695137 +0530,
,,,,,,,,,,,,,,,,,,,,,,,,,23,Female,Right handed,Corrected to normal,,,,,0.018171899995650165,0.0342359999922337,0.0342359999922337,10.617285599990282,space,10.5743194000097,None,,,,,,,,,,,,,,,,,,,,,,,,,,,,,,,,,,,,,,,,,,,,,,,,,,,,,,,sub129_AB,001,2026-02-02_13h23.31.011,recognitionstage,,2025.1.1,59.76514687690334,2026-02-02 13h24.23.695137 +0530,
,,,,,,,,,,,,,,,,,,,,,,,,,23,Female,Right handed,Corrected to normal,,,,,,,,,,,,10.617311899986817,10.634044099992025,10.634044099992025,22.386437299996032,space,11.750797400003648,None,,,,,,,,,,,,,,,,,,,,,,,,,,,,,,,,,,,,,,,,,,,,,,,,sub129_AB,001,2026-02-02_13h23.31.011,recognitionstage,,2025.1.1,59.76514687690334,2026-02-02 13h24.23.695137 +0530,
abrupt_videos\abrupt_37.mp4,39,1,44,44,0,,,,,,,,,,0,44,44,40,,,,,1560.6829905999912,,23,Female,Right handed,Corrected to normal,,,,,,,,,,,,,,,,,,,1560.6301865999994,1560.6829905999912,1560.6829905999912,1557.4494438999973,1563.7847952999873,space,1,1,1563.8974550999992,1563.9158976999897,1566.4023808999918,1560.6829905999912,3.093224399999599,None,1566.4024809999974,1566.418100699986,1566.418100699986,1608.885229099993,space,42.462256500002695,None,,,,,,,,,,,,,,,,,,,,,,,,,,,sub129_AB,001,2026-02-02_13h23.31.011,recognitionstage,,2025.1.1,59.76514687690334,2026-02-02 13h24.23.695137 +0530,
,,,0,0,0,19,frames\Vid19_BB_T.png,frames\Vid19_L.png,['r'],1,[12.293005300001823],[None],3,13.847570099998848,,,,,0,0,0,18,1608.9151883999875,,23,Female,Right handed,Corrected to normal,,,,,,,,,,,,,,,,,,,,,,,,,,,,,,,,,,,,,,,,1608.9037192999967,1608.9151883999875,1608.9151883999875,1608.9151883999875,1608.9151883999875,1608.9151883999875,1608.9151883999875,1621.2189643999882,['r'],1,[12.293005300001823],[None],1621.220565999989,1621.2480470999872,1621.2480470999872,1621.2480470999872,1635.0843891999975,3,13.847570099998848,3,13.847570099998848,,,,,,sub129_AB,001,2026-02-02_13h23.31.011,recognitionstage,,2025.1.1,59.76514687690334,2026-02-02 13h24.23.695137 +0530,
,,,1,1,0,14,frames\Vid14_BB_T.png,frames\Vid14_L.png,['r'],1,[3.6909509999968577],[None],5,2.514798999996856,,,,,0,1,1,13,1635.149212599994,,23,Female,Right handed,Corrected to normal,,,,,,,,,,,,,,,,,,,,,,,,,,,,,,,,,,,,,,,,1635.1355627999874,1635.149212599994,1635.149212599994,1635.149212599994,1635.149212599994,1635.149212599994,1635.149212599994,1638.8522968999896,['r'],1,[3.6909509999968577],[None],1638.8530551999866,1638.8667825999873,1638.8667825999873,1638.8667825999873,1641.383855699998,5,2.514798999996856,5,2.514798999996856,,,,,,sub129_AB,001,2026-02-02_13h23.31.011,recognitionstage,,2025.1.1,59.76514687690334,2026-02-02 13h24.23.695137 +0530,
,,,2,2,0,3,frames\Vid3_BB_T.png,frames\Vid3_L.png,['l'],1,[5.790874700003769],[None],5,1.1483315999939805,,,,,0,2,2,2,1641.4492376999988,,23,Female,Right handed,Corrected to normal,,,,,,,,,,,,,,,,,,,,,,,,,,,,,,,,,,,,,,,,1641.4362392999901,1641.4492376999988,1641.4492376999988,1641.4492376999988,1641.4492376999988,1641.4492376999988,1641.4492376999988,1647.2522152999882,['l'],1,[5.790874700003769],[None],1647.2533183999913,1647.2821380999958,1647.2821380999958,1647.2821380999958,1648.417238199996,5,1.1483315999939805,5,1.1483315999939805,,,,,,sub129_AB,001,2026-02-02_13h23.31.011,recognitionstage,,2025.1.1,59.76514687690334,2026-02-02 13h24.23.695137 +0530,
,,,3,3,0,20,frames\Vid20_EM_T.png,frames\Vid20_L.png,['l'],1,[8.722582299989881],[None],4,2.582029199998942,,,,,0,3,3,19,1648.4377127999905,,23,Female,Right handed,Corrected to normal,,,,,,,,,,,,,,,,,,,,,,,,,,,,,,,,,,,,,,,,1648.4237004999886,1648.4377127999905,1648.4377127999905,1648.4377127999905,1648.4377127999905,1648.4377127999905,1648.4377127999905,1657.1681785999972,['l'],1,[8.722582299989881],[None],1657.1691233999882,1657.183164099988,1657.183164099988,1657.183164099988,1659.7679720999877,4,2.582029199998942,4,2.582029199998942,,,,,,sub129_AB,001,2026-02-02_13h23.31.011,recognitionstage,,2025.1.1,59.76514687690334,2026-02-02 13h24.23.695137 +0530,
,,,4,4,0,6,frames\Vid6_BB_T.png,frames\Vid6_L.png,['l'],1,[3.3107885000063106],[None],5,2.0981235000072047,,,,,0,4,4,5,1659.8334928999975,,23,Female,Right handed,Corrected to normal,,,,,,,,,,,,,,,,,,,,,,,,,,,,,,,,,,,,,,,,1659.8130582999875,1659.8334928999975,1659.8334928999975,1659.8334928999975,1659.8334928999975,1659.8334928999975,1659.8334928999975,1663.1523212999891,['l'],1,[3.3107885000063106],[None],1663.153225499991,1663.1662919999944,1663.1662919999944,1663.1662919999944,1665.2675600999937,5,2.0981235000072047,5,2.0981235000072047,,,,,,sub129_AB,001,2026-02-02_13h23.31.011,recognitionstage,,2025.1.1,59.76514687690334,2026-02-02 13h24.23.695137 +0530,
,,,5,5,0,1,frames\Vid1_EM_T.png,frames\Vid1_L.png,['l'],1,[8.655071700006374],[None],5,1.3654879999958212,,,,,0,5,5,0,1665.3371440999908,,23,Female,Right handed,Corrected to normal,,,,,,,,,,,,,,,,,,,,,,,,,,,,,,,,,,,,,,,,1665.318788199991,1665.3371440999908,1665.3371440999908,1665.3371440999908,1665.3371440999908,1665.3371440999908,1665.3371440999908,1674.0013725999888,['l'],1,[8.655071700006374],[None],1674.002207499987,1674.016710699987,1674.016710699987,1674.016710699987,1675.3846923999954,5,1.3654879999958212,5,1.3654879999958212,,,,,,sub129_AB,001,2026-02-02_13h23.31.011,recognitionstage,,2025.1.1,59.76514687690334,2026-02-02 13h24.23.695137 +0530,
,,,6,6,0,2,frames\Vid2_BB_T.png,frames\Vid2_L.png,['l'],1,[5.443697900002007],[None],4,2.299435499997344,,,,,0,6,6,1,1675.4364877999906,,23,Female,Right handed,Corrected to normal,,,,,,,,,,,,,,,,,,,,,,,,,,,,,,,,,,,,,,,,1675.425314299995,1675.4364877999906,1675.4364877999906,1675.4364877999906,1675.4364877999906,1675.4364877999906,1675.4364877999906,1680.8853744999942,['l'],1,[5.443697900002007],[None],1680.8861951,1680.8996925999963,1680.8996925999963,1680.8996925999963,1683.2008387999958,4,2.299435499997344,4,2.299435499997344,,,,,,sub129_AB,001,2026-02-02_13h23.31.011,recognitionstage,,2025.1.1,59.76514687690334,2026-02-02 13h24.23.695137 +0530,
,,,7,7,0,12,frames\Vid12_EM_T.png,frames\Vid12_L.png,['l'],1,[3.481946899992181],[None],5,1.331848000001628,,,,,0,7,7,11,1683.2701335999882,,23,Female,Right handed,Corrected to normal,,,,,,,,,,,,,,,,,,,,,,,,,,,,,,,,,,,,,,,,1683.2461076999898,1683.2701335999882,1683.2701335999882,1683.2701335999882,1683.2701335999882,1683.2701335999882,1683.2701335999882,1686.767961199992,['l'],1,[3.481946899992181],[None],1686.768788299989,1686.7834902999894,1686.7834902999894,1686.7834902999894,1688.1173202999926,5,1.331848000001628,5,1.331848000001628,,,,,,sub129_AB,001,2026-02-02_13h23.31.011,recognitionstage,,2025.1.1,59.76514687690334,2026-02-02 13h24.23.695137 +0530,
,,,8,8,0,8,frames\Vid8_BB_T.png,frames\Vid8_L.png,['r'],1,[3.96592149999924],[None],5,1.1299771000049077,,,,,0,8,8,7,1688.1702152999933,,23,Female,Right handed,Corrected to normal,,,,,,,,,,,,,,,,,,,,,,,,,,,,,,,,,,,,,,,,1688.1548120999942,1688.1702152999933,1688.1702152999933,1688.1702152999933,1688.1702152999933,1688.1702152999933,1688.1702152999933,1692.152876799999,['r'],1,[3.96592149999924],[None],1692.1539858999895,1692.1815310999955,1692.1815310999955,1692.1815310999955,1693.301400299999,5,1.1299771000049077,5,1.1299771000049077,,,,,,sub129_AB,001,2026-02-02_13h23.31.011,recognitionstage,,2025.1.1,59.76514687690334,2026-02-02 13h24.23.695137 +0530,
,,,9,9,0,23,frames\Vid23_EM_T.png,frames\Vid23_L.png,['l'],1,[3.9521638000005623],[None],5,0.9142365000006976,,,,,0,9,9,22,1693.3359875999886,,23,Female,Right handed,Corrected to normal,,,,,,,,,,,,,,,,,,,,,,,,,,,,,,,,,,,,,,,,1693.317204299994,1693.3359875999886,1693.3359875999886,1693.3359875999886,1693.3359875999886,1693.3359875999886,1693.3359875999886,1697.3024663999968,['l'],1,[3.9521638000005623],[None],1697.3035403999966,1697.3172164999996,1697.3172164999996,1697.3172164999996,1698.2339240999863,5,0.9142365000006976,5,0.9142365000006976,,,,,,sub129_AB,001,2026-02-02_13h23.31.011,recognitionstage,,2025.1.1,59.76514687690334,2026-02-02 13h24.23.695137 +0530,
,,,10,10,0,24,frames\Vid24_BB_T.png,frames\Vid24_L.png,['r'],1,[4.43725469999481],[None],5,0.9322246999945492,,,,,0,10,10,23,1698.266858099989,,23,Female,Right handed,Corrected to normal,,,,,,,,,,,,,,,,,,,,,,,,,,,,,,,,,,,,,,,,1698.2470336999977,1698.266858099989,1698.266858099989,1698.266858099989,1698.266858099989,1698.266858099989,1698.266858099989,1702.7183559999976,['r'],1,[4.43725469999481],[None],1702.7190929999924,1702.7331166999938,1702.7331166999938,1702.7331166999938,1703.6666745999974,5,0.9322246999945492,5,0.9322246999945492,,,,,,sub129_AB,001,2026-02-02_13h23.31.011,recognitionstage,,2025.1.1,59.76514687690334,2026-02-02 13h24.23.695137 +0530,
,,,11,11,0,25,frames\Vid25_BB_T.png,frames\Vid25_L.png,['r'],0,[7.907046400010586],[None],3,2.8821354000101564,,,,,0,11,11,24,1703.6852427999984,,23,Female,Right handed,Corrected to normal,,,,,,,,,,,,,,,,,,,,,,,,,,,,,,,,,,,,,,,,1703.6767222999915,1703.6852427999984,1703.6852427999984,1703.6852427999984,1703.6852427999984,1703.6852427999984,1703.6852427999984,1711.6012411999982,['r'],0,[7.907046400010586],[None],1711.6021167,1711.6166744999937,1711.6166744999937,1711.6166744999937,1714.5006940999883,3,2.8821354000101564,3,2.8821354000101564,,,,,,sub129_AB,001,2026-02-02_13h23.31.011,recognitionstage,,2025.1.1,59.76514687690334,2026-02-02 13h24.23.695137 +0530,
,,,12,12,0,4,frames\Vid4_EM_T.png,frames\Vid4_L.png,['r'],1,[7.072992500005057],[None],3,2.847886900010053,,,,,0,12,12,3,1714.5671225999977,,23,Female,Right handed,Corrected to normal,,,,,,,,,,,,,,,,,,,,,,,,,,,,,,,,,,,,,,,,1714.5458433999884,1714.5671225999977,1714.5671225999977,1714.5671225999977,1714.5671225999977,1714.5671225999977,1714.5671225999977,1721.652206999992,['r'],1,[7.072992500005057],[None],1721.6529721999977,1721.6667219999945,1721.6667219999945,1721.6667219999945,1724.5176137999952,3,2.847886900010053,3,2.847886900010053,,,,,,sub129_AB,001,2026-02-02_13h23.31.011,recognitionstage,,2025.1.1,59.76514687690334,2026-02-02 13h24.23.695137 +0530,
,,,13,13,0,39,frames\Vid39_BB_T.png,frames\Vid39_L.png,['l'],1,[4.50987680000253],[None],5,1.0808390000020154,,,,,0,13,13,38,1724.538396799995,,23,Female,Right handed,Corrected to normal,,,,,,,,,,,,,,,,,,,,,,,,,,,,,,,,,,,,,,,,1724.5254305999988,1724.538396799995,1724.538396799995,1724.538396799995,1724.538396799995,1724.538396799995,1724.538396799995,1729.052497599987,['l'],1,[4.50987680000253],[None],1729.053565899987,1729.081445799995,1729.081445799995,1729.081445799995,1730.1501607999962,5,1.0808390000020154,5,1.0808390000020154,,,,,,sub129_AB,001,2026-02-02_13h23.31.011,recognitionstage,,2025.1.1,59.76514687690334,2026-02-02 13h24.23.695137 +0530,
,,,14,14,0,35,frames\Vid35_EM_T.png,frames\Vid35_L.png,['r'],1,[4.591586599999573],[None],5,1.314453400002094,,,,,0,14,14,34,1730.1686041999928,,23,Female,Right handed,Corrected to normal,,,,,,,,,,,,,,,,,,,,,,,,,,,,,,,,,,,,,,,,1730.157664399987,1730.1686041999928,1730.1686041999928,1730.1686041999928,1730.1686041999928,1730.1686041999928,1730.1686041999928,1734.7689147999918,['r'],1,[4.591586599999573],[None],1734.76998669999,1734.7830273,1734.7830273,1734.7830273,1736.1012572999898,5,1.314453400002094,5,1.314453400002094,,,,,,sub129_AB,001,2026-02-02_13h23.31.011,recognitionstage,,2025.1.1,59.76514687690334,2026-02-02 13h24.23.695137 +0530,
,,,15,15,0,32,frames\Vid32_EM_T.png,frames\Vid32_L.png,['r'],1,[3.7059790000057546],[None],5,1.1650257000001147,,,,,0,15,15,31,1736.1340352999978,,23,Female,Right handed,Corrected to normal,,,,,,,,,,,,,,,,,,,,,,,,,,,,,,,,,,,,,,,,1736.1142817999935,1736.1340352999978,1736.1340352999978,1736.1340352999978,1736.1340352999978,1736.1340352999978,1736.1340352999978,1739.852046199987,['r'],1,[3.7059790000057546],[None],1739.8527866999939,1739.8664315999922,1739.8664315999922,1739.8664315999922,1741.033647999997,5,1.1650257000001147,5,1.1650257000001147,,,,,,sub129_AB,001,2026-02-02_13h23.31.011,recognitionstage,,2025.1.1,59.76514687690334,2026-02-02 13h24.23.695137 +0530,
,,,16,16,0,38,frames\Vid38_EM_T.png,frames\Vid38_L.png,['r'],1,[7.555938300007256],[None],1,1.7146141999983229,,,,,0,16,16,37,1741.0521621999942,,23,Female,Right handed,Corrected to normal,,,,,,,,,,,,,,,,,,,,,,,,,,,,,,,,,,,,,,,,1741.0428860999964,1741.0521621999942,1741.0521621999942,1741.0521621999942,1741.0521621999942,1741.0521621999942,1741.0521621999942,1748.618922499998,['r'],1,[7.555938300007256],[None],1748.6199014999875,1748.6330216999922,1748.6330216999922,1748.6330216999922,1750.351173899995,1,1.7146141999983229,1,1.7146141999983229,,,,,,sub129_AB,001,2026-02-02_13h23.31.011,recognitionstage,,2025.1.1,59.76514687690334,2026-02-02 13h24.23.695137 +0530,
,,,17,17,0,17,frames\Vid17_BB_T.png,frames\Vid17_L.png,['r'],1,[5.544500400006655],[None],3,2.447421299992129,,,,,0,17,17,16,1750.3836926999938,,23,Female,Right handed,Corrected to normal,,,,,,,,,,,,,,,,,,,,,,,,,,,,,,,,,,,,,,,,1750.375869399999,1750.3836926999938,1750.3836926999938,1750.3836926999938,1750.3836926999938,1750.3836926999938,1750.3836926999938,1755.9360260999965,['r'],1,[5.544500400006655],[None],1755.9369340999983,1755.9500783999974,1755.9500783999974,1755.9500783999974,1758.4014911999984,3,2.447421299992129,3,2.447421299992129,,,,,,sub129_AB,001,2026-02-02_13h23.31.011,recognitionstage,,2025.1.1,59.76514687690334,2026-02-02 13h24.23.695137 +0530,
,,,18,18,0,10,frames\Vid10_BB_T.png,frames\Vid10_L.png,['l'],1,[4.708340900004259],[None],3,1.4468209000042407,,,,,0,18,18,9,1758.4519002999878,,23,Female,Right handed,Corrected to normal,,,,,,,,,,,,,,,,,,,,,,,,,,,,,,,,,,,,,,,,1758.4439196999883,1758.4519002999878,1758.4519002999878,1758.4519002999878,1758.4519002999878,1758.4519002999878,1758.4519002999878,1763.170027699991,['l'],1,[4.708340900004259],[None],1763.1716608999996,1763.1981131999928,1763.1981131999928,1763.1981131999928,1764.6337791999977,3,1.4468209000042407,3,1.4468209000042407,,,,,,sub129_AB,001,2026-02-02_13h23.31.011,recognitionstage,,2025.1.1,59.76514687690334,2026-02-02 13h24.23.695137 +0530,
,,,19,19,0,16,frames\Vid16_EM_T.png,frames\Vid16_L.png,['r'],0,[6.168879400007427],[None],1,2.7988158999942243,,,,,0,19,19,15,1764.687135199987,,23,Female,Right handed,Corrected to normal,,,,,,,,,,,,,,,,,,,,,,,,,,,,,,,,,,,,,,,,1764.6757217999984,1764.687135199987,1764.687135199987,1764.687135199987,1764.687135199987,1764.687135199987,1764.687135199987,1770.8679454999947,['r'],0,[6.168879400007427],[None],1770.8689238999941,1770.8829898999975,1770.8829898999975,1770.8829898999975,1773.6837481999974,1,2.7988158999942243,1,2.7988158999942243,,,,,,sub129_AB,001,2026-02-02_13h23.31.011,recognitionstage,,2025.1.1,59.76514687690334,2026-02-02 13h24.23.695137 +0530,
,,,20,20,0,5,frames\Vid5_EM_T.png,frames\Vid5_L.png,['r'],0,[3.4239674000127707],[None],2,1.0814201000030152,,,,,0,20,20,4,1773.736184399997,,23,Female,Right handed,Corrected to normal,,,,,,,,,,,,,,,,,,,,,,,,,,,,,,,,,,,,,,,,1773.714008799987,1773.736184399997,1773.736184399997,1773.736184399997,1773.736184399997,1773.736184399997,1773.736184399997,1777.1685459,['r'],0,[3.4239674000127707],[None],1777.16953259999,1777.1836556999915,1777.1836556999915,1777.1836556999915,1778.267277299994,2,1.0814201000030152,2,1.0814201000030152,,,,,,sub129_AB,001,2026-02-02_13h23.31.011,recognitionstage,,2025.1.1,59.76514687690334,2026-02-02 13h24.23.695137 +0530,
,,,21,21,0,40,frames\Vid40_EM_T.png,frames\Vid40_L.png,['l'],1,[5.697211000006064],[None],5,1.8285986999981105,,,,,0,21,21,39,1778.287168099996,,23,Female,Right handed,Corrected to normal,,,,,,,,,,,,,,,,,,,,,,,,,,,,,,,,,,,,,,,,1778.2745294999913,1778.287168099996,1778.287168099996,1778.287168099996,1778.287168099996,1778.287168099996,1778.287168099996,1783.9874396999949,['l'],1,[5.697211000006064],[None],1783.988896099996,1784.0146497999958,1784.0146497999958,1784.0146497999958,1785.8341609999916,5,1.8285986999981105,5,1.8285986999981105,,,,,,sub129_AB,001,2026-02-02_13h23.31.011,recognitionstage,,2025.1.1,59.76514687690334,2026-02-02 13h24.23.695137 +0530,
,,,22,22,0,27,frames\Vid27_BB_T.png,frames\Vid27_L.png,['r'],1,[6.42081650000182],[None],4,1.2978518000018084,,,,,0,22,22,26,1785.851376999999,,23,Female,Right handed,Corrected to normal,,,,,,,,,,,,,,,,,,,,,,,,,,,,,,,,,,,,,,,,1785.8425538999873,1785.851376999999,1785.851376999999,1785.851376999999,1785.851376999999,1785.851376999999,1785.851376999999,1792.2851977999962,['r'],1,[6.42081650000182],[None],1792.2861911999935,1792.3000396999996,1792.3000396999996,1792.3000396999996,1793.6008176999894,4,1.2978518000018084,4,1.2978518000018084,,,,,,sub129_AB,001,2026-02-02_13h23.31.011,recognitionstage,,2025.1.1,59.76514687690334,2026-02-02 13h24.23.695137 +0530,
,,,23,23,0,26,frames\Vid26_EM_T.png,frames\Vid26_L.png,['l'],1,[7.53520739999658],[None],4,1.2976984999986598,,,,,0,23,23,25,1793.6328827999969,,23,Female,Right handed,Corrected to normal,,,,,,,,,,,,,,,,,,,,,,,,,,,,,,,,,,,,,,,,1793.615288099987,1793.6328827999969,1793.6328827999969,1793.6328827999969,1793.6328827999969,1793.6328827999969,1793.6328827999969,1801.185651599997,['l'],1,[7.53520739999658],[None],1801.1867356000002,1801.1997116999992,1801.1997116999992,1801.1997116999992,1802.5001534999901,4,1.2976984999986598,4,1.2976984999986598,,,,,,sub129_AB,001,2026-02-02_13h23.31.011,recognitionstage,,2025.1.1,59.76514687690334,2026-02-02 13h24.23.695137 +0530,
,,,24,24,0,31,frames\Vid31_EM_T.png,frames\Vid31_L.png,['l'],1,[2.7612212999956682],[None],5,2.264379400003236,,,,,0,24,24,30,1802.5189694999863,,23,Female,Right handed,Corrected to normal,,,,,,,,,,,,,,,,,,,,,,,,,,,,,,,,,,,,,,,,1802.5075860999932,1802.5189694999863,1802.5189694999863,1802.5189694999863,1802.5189694999863,1802.5189694999863,1802.5189694999863,1805.2859904999932,['l'],1,[2.7612212999956682],[None],1805.2867802999972,1805.299970699998,1805.299970699998,1805.299970699998,1807.5669576999935,5,2.264379400003236,5,2.264379400003236,,,,,,sub129_AB,001,2026-02-02_13h23.31.011,recognitionstage,,2025.1.1,59.76514687690334,2026-02-02 13h24.23.695137 +0530,
,,,25,25,0,18,frames\Vid18_EM_T.png,frames\Vid18_L.png,['l'],1,[4.871771600010106],[None],4,1.7305073000025004,,,,,0,25,25,17,1807.6001703999937,,23,Female,Right handed,Corrected to normal,,,,,,,,,,,,,,,,,,,,,,,,,,,,,,,,,,,,,,,,1807.5793968999933,1807.6001703999937,1807.6001703999937,1807.6001703999937,1807.6001703999937,1807.6001703999937,1807.6001703999937,1812.4861302999925,['l'],1,[4.871771600010106],[None],1812.4873455999914,1812.4995744999906,1812.4995744999906,1812.4995744999906,1814.2334561999887,4,1.7305073000025004,4,1.7305073000025004,,,,,,sub129_AB,001,2026-02-02_13h23.31.011,recognitionstage,,2025.1.1,59.76514687690334,2026-02-02 13h24.23.695137 +0530,
,,,26,26,0,37,frames\Vid37_BB_T.png,frames\Vid37_L.png,['l'],1,[3.47750090000045],[None],5,1.0813890999997966,,,,,0,26,26,36,1814.2665308999858,,23,Female,Right handed,Corrected to normal,,,,,,,,,,,,,,,,,,,,,,,,,,,,,,,,,,,,,,,,1814.2444609999948,1814.2665308999858,1814.2665308999858,1814.2665308999858,1814.2665308999858,1814.2665308999858,1814.2665308999858,1817.751717399995,['l'],1,[3.47750090000045],[None],1817.7527486999898,1817.7669464999926,1817.7669464999926,1817.7669464999926,1818.8506498999923,5,1.0813890999997966,5,1.0813890999997966,,,,,,sub129_AB,001,2026-02-02_13h23.31.011,recognitionstage,,2025.1.1,59.76514687690334,2026-02-02 13h24.23.695137 +0530,
,,,27,27,0,30,frames\Vid30_EM_T.png,frames\Vid30_L.png,['r'],1,[8.971876700001303],[None],5,1.114148099994054,,,,,0,27,27,29,1818.8681660999864,,23,Female,Right handed,Corrected to normal,,,,,,,,,,,,,,,,,,,,,,,,,,,,,,,,,,,,,,,,1818.8593294999882,1818.8681660999864,1818.8681660999864,1818.8681660999864,1818.8681660999864,1818.8681660999864,1818.8681660999864,1827.8523541999893,['r'],1,[8.971876700001303],[None],1827.8532730999868,1827.866228199986,1827.866228199986,1827.866228199986,1828.9838364999887,5,1.114148099994054,5,1.114148099994054,,,,,,sub129_AB,001,2026-02-02_13h23.31.011,recognitionstage,,2025.1.1,59.76514687690334,2026-02-02 13h24.23.695137 +0530,
,,,28,28,0,7,frames\Vid7_EM_T.png,frames\Vid7_L.png,['r'],1,[5.238618499992299],[None],5,1.4979615000047488,,,,,0,28,28,6,1829.0335149999883,,23,Female,Right handed,Corrected to normal,,,,,,,,,,,,,,,,,,,,,,,,,,,,,,,,,,,,,,,,1829.0272815999924,1829.0335149999883,1829.0335149999883,1829.0335149999883,1829.0335149999883,1829.0335149999883,1829.0335149999883,1834.2855232999864,['r'],1,[5.238618499992299],[None],1834.2864374999917,1834.2996640999918,1834.2996640999918,1834.2996640999918,1835.8003973999876,5,1.4979615000047488,5,1.4979615000047488,,,,,,sub129_AB,001,2026-02-02_13h23.31.011,recognitionstage,,2025.1.1,59.76514687690334,2026-02-02 13h24.23.695137 +0530,
,,,29,29,0,33,frames\Vid33_BB_T.png,frames\Vid33_L.png,['l'],1,[5.0670633999980055],[None],3,9.01480079999601,,,,,0,29,29,32,1835.821022899996,,23,Female,Right handed,Corrected to normal,,,,,,,,,,,,,,,,,,,,,,,,,,,,,,,,,,,,,,,,1835.8092526999972,1835.821022899996,1835.821022899996,1835.821022899996,1835.821022899996,1835.821022899996,1835.821022899996,1840.9023577999906,['l'],1,[5.0670633999980055],[None],1840.903600199992,1840.91677109999,1840.91677109999,1840.91677109999,1849.933646599995,3,9.01480079999601,3,9.01480079999601,,,,,,sub129_AB,001,2026-02-02_13h23.31.011,recognitionstage,,2025.1.1,59.76514687690334,2026-02-02 13h24.23.695137 +0530,
,,,30,30,0,13,frames\Vid13_BB_T.png,frames\Vid13_L.png,['l'],1,[5.88804479999817],[None],2,3.0643135999998776,,,,,0,30,30,12,1849.9840423999995,,23,Female,Right handed,Corrected to normal,,,,,,,,,,,,,,,,,,,,,,,,,,,,,,,,,,,,,,,,1849.968203899989,1849.9840423999995,1849.9840423999995,1849.9840423999995,1849.9840423999995,1849.9840423999995,1849.9840423999995,1855.8852007999958,['l'],1,[5.88804479999817],[None],1855.8863034999958,1855.9000807999982,1855.9000807999982,1855.9000807999982,1858.9674575999961,2,3.0643135999998776,2,3.0643135999998776,,,,,,sub129_AB,001,2026-02-02_13h23.31.011,recognitionstage,,2025.1.1,59.76514687690334,2026-02-02 13h24.23.695137 +0530,
,,,31,31,0,15,frames\Vid15_BB_T.png,frames\Vid15_L.png,['l'],1,[7.099638800005778],[None],3,1.1644705999933649,,,,,0,31,31,14,1859.0365139999922,,23,Female,Right handed,Corrected to normal,,,,,,,,,,,,,,,,,,,,,,,,,,,,,,,,,,,,,,,,1859.018700399989,1859.0365139999922,1859.0365139999922,1859.0365139999922,1859.0365139999922,1859.0365139999922,1859.0365139999922,1866.1523680999962,['l'],1,[7.099638800005778],[None],1866.1533955999912,1866.1665203999873,1866.1665203999873,1866.1665203999873,1867.3336543999903,3,1.1644705999933649,3,1.1644705999933649,,,,,,sub129_AB,001,2026-02-02_13h23.31.011,recognitionstage,,2025.1.1,59.76514687690334,2026-02-02 13h24.23.695137 +0530,
,,,32,32,0,29,frames\Vid29_BB_T.png,frames\Vid29_L.png,['r'],1,[4.246914899995318],[None],4,1.0478797999967355,,,,,0,32,32,28,1867.3690566999867,,23,Female,Right handed,Corrected to normal,,,,,,,,,,,,,,,,,,,,,,,,,,,,,,,,,,,,,,,,1867.3461372999882,1867.3690566999867,1867.3690566999867,1867.3690566999867,1867.3690566999867,1867.3690566999867,1867.3690566999867,1871.6192034999985,['r'],1,[4.246914899995318],[None],1871.620037399989,1871.6332693999866,1871.6332693999866,1871.6332693999866,1872.6840172999946,4,1.0478797999967355,4,1.0478797999967355,,,,,,sub129_AB,001,2026-02-02_13h23.31.011,recognitionstage,,2025.1.1,59.76514687690334,2026-02-02 13h24.23.695137 +0530,
,,,33,33,0,9,frames\Vid9_EM_T.png,frames\Vid9_L.png,['l'],1,[5.322039000006043],[None],4,0.8642420999967726,,,,,0,33,33,8,1872.7340397999942,,23,Female,Right handed,Corrected to normal,,,,,,,,,,,,,,,,,,,,,,,,,,,,,,,,,,,,,,,,1872.719599899996,1872.7340397999942,1872.7340397999942,1872.7340397999942,1872.7340397999942,1872.7340397999942,1872.7340397999942,1878.0689739999943,['l'],1,[5.322039000006043],[None],1878.070127599989,1878.0834812999965,1878.0834812999965,1878.0834812999965,1878.9510976999882,4,0.8642420999967726,4,0.8642420999967726,,,,,,sub129_AB,001,2026-02-02_13h23.31.011,recognitionstage,,2025.1.1,59.76514687690334,2026-02-02 13h24.23.695137 +0530,
,,,34,34,0,22,frames\Vid22_EM_T.png,frames\Vid22_L.png,['l'],1,[3.9823561999946833],[None],5,1.2133641000109492,,,,,0,34,34,21,1878.9857196999947,,23,Female,Right handed,Corrected to normal,,,,,,,,,,,,,,,,,,,,,,,,,,,,,,,,,,,,,,,,1878.9643891999876,1878.9857196999947,1878.9857196999947,1878.9857196999947,1878.9857196999947,1878.9857196999947,1878.9857196999947,1882.96952459999,['l'],1,[3.9823561999946833],[None],1882.970574299994,1882.9830655999976,1882.9830655999976,1882.9830655999976,1884.200471499993,5,1.2133641000109492,5,1.2133641000109492,,,,,,sub129_AB,001,2026-02-02_13h23.31.011,recognitionstage,,2025.1.1,59.76514687690334,2026-02-02 13h24.23.695137 +0530,
,,,35,35,0,21,frames\Vid21_BB_T.png,frames\Vid21_L.png,['r'],1,[3.086724199994933],[None],5,1.4635013000079198,,,,,0,35,35,20,1884.2333249999938,,23,Female,Right handed,Corrected to normal,,,,,,,,,,,,,,,,,,,,,,,,,,,,,,,,,,,,,,,,1884.2123734999914,1884.2333249999938,1884.2333249999938,1884.2333249999938,1884.2333249999938,1884.2333249999938,1884.2333249999938,1887.3358358999976,['r'],1,[3.086724199994933],[None],1887.3371760999871,1887.350027099994,1887.350027099994,1887.350027099994,1888.817296899986,5,1.4635013000079198,5,1.4635013000079198,,,,,,sub129_AB,001,2026-02-02_13h23.31.011,recognitionstage,,2025.1.1,59.76514687690334,2026-02-02 13h24.23.695137 +0530,
,,,36,36,0,36,frames\Vid36_BB_T.png,frames\Vid36_L.png,['l'],1,[4.310278100005235],[None],1,1.0484983999922406,,,,,0,36,36,35,1888.8498984999896,,23,Female,Right handed,Corrected to normal,,,,,,,,,,,,,,,,,,,,,,,,,,,,,,,,,,,,,,,,1888.8300787999906,1888.8498984999896,1888.8498984999896,1888.8498984999896,1888.8498984999896,1888.8498984999896,1888.8498984999896,1893.1683164999995,['l'],1,[4.310278100005235],[None],1893.1688661999942,1893.1831761999929,1893.1831761999929,1893.1831761999929,1894.2345835999877,1,1.0484983999922406,1,1.0484983999922406,,,,,,sub129_AB,001,2026-02-02_13h23.31.011,recognitionstage,,2025.1.1,59.76514687690334,2026-02-02 13h24.23.695137 +0530,
,,,37,37,0,34,frames\Vid34_BB_T.png,frames\Vid34_L.png,['l'],1,[4.301449399994453],[None],3,1.930536600004416,,,,,0,37,37,33,1894.2667174999951,,23,Female,Right handed,Corrected to normal,,,,,,,,,,,,,,,,,,,,,,,,,,,,,,,,,,,,,,,,1894.2447113999951,1894.2667174999951,1894.2667174999951,1894.2667174999951,1894.2667174999951,1894.2667174999951,1894.2667174999951,1898.569200599988,['l'],1,[4.301449399994453],[None],1898.5704995999986,1898.5833017999976,1898.5833017999976,1898.5833017999976,1900.5173318999878,3,1.930536600004416,3,1.930536600004416,,,,,,sub129_AB,001,2026-02-02_13h23.31.011,recognitionstage,,2025.1.1,59.76514687690334,2026-02-02 13h24.23.695137 +0530,
,,,38,38,0,11,frames\Vid11_EM_T.png,frames\Vid11_L.png,['l'],0,[4.16100560000632],[None],5,1.5973421999951825,,,,,0,38,38,10,1900.5671508999949,,23,Female,Right handed,Corrected to normal,,,,,,,,,,,,,,,,,,,,,,,,,,,,,,,,,,,,,,,,1900.5604203999974,1900.5671508999949,1900.5671508999949,1900.5671508999949,1900.5671508999949,1900.5671508999949,1900.5671508999949,1904.7356258999935,['l'],0,[4.16100560000632],[None],1904.7366616999934,1904.7499863999983,1904.7499863999983,1904.7499863999983,1906.3512053999875,5,1.5973421999951825,5,1.5973421999951825,,,,,,sub129_AB,001,2026-02-02_13h23.31.011,recognitionstage,,2025.1.1,59.76514687690334,2026-02-02 13h24.23.695137 +0530,
,,,39,39,0,28,frames\Vid28_EM_T.png,frames\Vid28_L.png,['l'],1,[3.494883800012758],[None],5,0.6620060999994166,,,,,0,39,39,27,1906.385475499992,,23,Female,Right handed,Corrected to normal,,,,,,,,,,,,,,,,,,,,,,,,,,,,,,,,,,,,,,,,1906.3621126999933,1906.385475499992,1906.385475499992,1906.385475499992,1906.385475499992,1906.385475499992,1906.385475499992,1909.8869423999859,['l'],1,[3.494883800012758],[None],1909.888653499991,1909.9148866999894,1909.9148866999894,1909.9148866999894,1910.5676517999964,5,0.6620060999994166,5,0.6620060999994166,,,,,,sub129_AB,001,2026-02-02_13h23.31.011,recognitionstage,,2025.1.1,59.76514687690334,2026-02-02 13h24.23.695137 +0530,
,,,,,,,,,,,,,,,,,,,,,,,,,23,Female,Right handed,Corrected to normal,,,,,,,,,,,,,,,,,,,,,,,,,,,,,,,,,,,,,,,,,,,,,,,,,,,,,,,,,,,,,1910.5677758999955,1910.5834359,1910.5834359,1930.5691785999952,None,sub129_AB,001,2026-02-02_13h23.31.011,recognitionstage,,2025.1.1,59.76514687690334,2026-02-02 13h24.23.695137 +0530,
