path,duration,is_repeat,thisN,thisTrialN,thisRepN,movie_id,target_img,lure_img,resp.keys,resp.corr,resp.rt,resp.duration,conf_radio.response,conf_radio.rt,movie.thisRepN,movie.thisTrialN,movie.thisN,movie.thisIndex,recogloop.thisRepN,recogloop.thisTrialN,recogloop.thisN,recogloop.thisIndex,thisRow.t,notes,age,gender,handedness,vision,caffeine_2h,alcohol_smoke_12h,demographics.started,demographics.stopped,Instructions.started,text1.started,key_resp.started,Instructions.stopped,key_resp.keys,key_resp.rt,key_resp.duration,instruction_2.started,text2.started,key_resp_2.started,instruction_2.stopped,key_resp_2.keys,key_resp_2.rt,key_resp_2.duration,Videos.started,movie_2.started,vigilance_resp.started,movie_2.stopped,Videos.stopped,movie.vigilance_resp.keys,vigilance_pressed,vigilance_correct,ISI.started,text.started,ISI.stopped,text.stopped,movie.vigilance_resp.rt,movie.vigilance_resp.duration,recognition.started,text_4.started,key_resp_3.started,recognition.stopped,key_resp_3.keys,key_resp_3.rt,key_resp_3.duration,recognition_task.started,leftimage.started,rightimage.started,resp.started,frames_question.started,right_label.started,left_label.started,recognition_task.stopped,recogloop.resp.keys,recogloop.resp.corr,recogloop.resp.rt,recogloop.resp.duration,confidence.started,conf_text.started,conf_radio.started,conf_label.started,confidence.stopped,recogloop.conf_radio.response,recogloop.conf_radio.rt,confidence,confidence_rt,thank_you.started,text_6.started,key_resp_4.started,thank_you.stopped,key_resp_4.keys,key_resp_4.rt,key_resp_4.duration,participant,session,date,expName,expVersion,psychopyVersion,frameRate,expStart,...105
,,,,,,,,,,,,,,,,,,,,,,,,,23,Male,Right handed,Normal,Caffeine consumed in last 2 hours?,Alcohol or smoking in last 12 hours?,0.013849200011463836,0.016321100003551692,,,,,,,,,,,,,,,,,,,,,,,,,,,,,,,,,,,,,,,,,,,,,,,,,,,,,,,,,,,,,,,,sub148_AB,001,2026-02-03_10h29.36.909,recognitionstage,,2025.1.1,59.89763494339995,2026-02-03 10h30.29.213324 +0530,
,,,,,,,,,,,,,,,,,,,,,,,,,23,Male,Right handed,Normal,,,,,0.016343299997970462,0.03310790000250563,0.03310790000250563,10.252396900003077,space,10.216057100013131,None,,,,,,,,,,,,,,,,,,,,,,,,,,,,,,,,,,,,,,,,,,,,,,,,,,,,,,,,,sub148_AB,001,2026-02-03_10h29.36.909,recognitionstage,,2025.1.1,59.89763494339995,2026-02-03 10h30.29.213324 +0530,
,,,,,,,,,,,,,,,,,,,,,,,,,23,Male,Right handed,Normal,,,,,,,,,,,,10.252466100006131,10.267700099997455,10.267700099997455,19.11856699999771,space,8.836965700000292,None,,,,,,,,,,,,,,,,,,,,,,,,,,,,,,,,,,,,,,,,,,,,,,,,,,sub148_AB,001,2026-02-03_10h29.36.909,recognitionstage,,2025.1.1,59.89763494339995,2026-02-03 10h30.29.213324 +0530,
abrupt_videos\abrupt_22.mp4,34,0,44,44,0,,,,,,,,,,0,44,44,24,,,,,1570.248332499992,,23,Male,Right handed,Normal,,,,,,,,,,,,,,,,,,,1570.1947123999998,1570.248332499992,1570.248332499992,1604.9814532000164,1604.8305647000088,None,0,1,1604.966676800017,1604.9814532000164,1607.467882099998,1539.4151865000022,4.302298899972811,None,1607.467975800013,1607.4829608,1607.4829608,1633.9690952000092,space,26.48522219998995,None,,,,,,,,,,,,,,,,,,,,,,,,,,,,,sub148_AB,001,2026-02-03_10h29.36.909,recognitionstage,,2025.1.1,59.89763494339995,2026-02-03 10h30.29.213324 +0530,
,,,0,0,0,37,frames\Vid37_BB_T.png,frames\Vid37_L.png,['l'],1,[8.098668200022075],[None],5,6.597137600008864,,,,,0,0,0,36,1633.9974409000133,,23,Male,Right handed,Normal,,,,,,,,,,,,,,,,,,,,,,,,,,,,,,,,,,,,,,,,1633.9888694999972,1633.9974409000133,1633.9974409000133,1633.9974409000133,1633.9974409000133,1633.9974409000133,1633.9974409000133,1642.1013335000025,['l'],1,[8.098668200022075],[None],1642.1025724000065,1642.130125900003,1642.130125900003,1642.130125900003,1648.7169845000026,5,6.597137600008864,5,6.597137600008864,,,,,,,,sub148_AB,001,2026-02-03_10h29.36.909,recognitionstage,,2025.1.1,59.89763494339995,2026-02-03 10h30.29.213324 +0530,
,,,1,1,0,14,frames\Vid14_BB_T.png,frames\Vid14_L.png,['r'],1,[10.050832199980505],[None],3,3.698747699992964,,,,,0,1,1,13,1648.7811655999976,,23,Male,Right handed,Normal,,,,,,,,,,,,,,,,,,,,,,,,,,,,,,,,,,,,,,,,1648.7663040000189,1648.7811655999976,1648.7811655999976,1648.7811655999976,1648.7811655999976,1648.7811655999976,1648.7811655999976,1658.8339088000066,['r'],1,[10.050832199980505],[None],1658.8346209000156,1658.848443099996,1658.848443099996,1658.848443099996,1662.5493440999999,3,3.698747699992964,3,3.698747699992964,,,,,,,,sub148_AB,001,2026-02-03_10h29.36.909,recognitionstage,,2025.1.1,59.89763494339995,2026-02-03 10h30.29.213324 +0530,
,,,2,2,0,4,frames\Vid4_EM_T.png,frames\Vid4_L.png,['r'],0,[21.3614341999928],[None],5,1.8484652000188362,,,,,0,2,2,3,1662.6146631000156,,23,Male,Right handed,Normal,,,,,,,,,,,,,,,,,,,,,,,,,,,,,,,,,,,,,,,,1662.6078909000207,1662.6146631000156,1662.6146631000156,1662.6146631000156,1662.6146631000156,1662.6146631000156,1662.6146631000156,1683.9836861999938,['r'],0,[21.3614341999928],[None],1683.9848698000133,1683.998974599992,1683.998974599992,1683.998974599992,1685.849749200017,5,1.8484652000188362,5,1.8484652000188362,,,,,,,,sub148_AB,001,2026-02-03_10h29.36.909,recognitionstage,,2025.1.1,59.89763494339995,2026-02-03 10h30.29.213324 +0530,
,,,3,3,0,23,frames\Vid23_EM_T.png,frames\Vid23_L.png,['l'],1,[4.98727520002285],[None],3,1.6823061000031885,,,,,0,3,3,22,1685.8848230000003,,23,Male,Right handed,Normal,,,,,,,,,,,,,,,,,,,,,,,,,,,,,,,,,,,,,,,,1685.8655999000184,1685.8848230000003,1685.8848230000003,1685.8848230000003,1685.8848230000003,1685.8848230000003,1685.8848230000003,1690.8836276000075,['l'],1,[4.98727520002285],[None],1690.8844321999932,1690.899013599992,1690.899013599992,1690.899013599992,1692.5831263000146,3,1.6823061000031885,3,1.6823061000031885,,,,,,,,sub148_AB,001,2026-02-03_10h29.36.909,recognitionstage,,2025.1.1,59.89763494339995,2026-02-03 10h30.29.213324 +0530,
,,,4,4,0,33,frames\Vid33_BB_T.png,frames\Vid33_L.png,['l'],1,[6.448439999978291],[None],4,1.6141217999975197,,,,,0,4,4,32,1692.6156967999996,,23,Male,Right handed,Normal,,,,,,,,,,,,,,,,,,,,,,,,,,,,,,,,,,,,,,,,1692.5956073999987,1692.6156967999996,1692.6156967999996,1692.6156967999996,1692.6156967999996,1692.6156967999996,1692.6156967999996,1699.067882000003,['l'],1,[6.448439999978291],[None],1699.0687763000024,1699.081975500012,1699.081975500012,1699.081975500012,1700.7000487000041,4,1.6141217999975197,4,1.6141217999975197,,,,,,,,sub148_AB,001,2026-02-03_10h29.36.909,recognitionstage,,2025.1.1,59.89763494339995,2026-02-03 10h30.29.213324 +0530,
,,,5,5,0,32,frames\Vid32_EM_T.png,frames\Vid32_L.png,['r'],1,[3.532302300009178],[None],5,1.1983235999941826,,,,,0,5,5,31,1700.7317230000044,,23,Male,Right handed,Normal,,,,,,,,,,,,,,,,,,,,,,,,,,,,,,,,,,,,,,,,1700.7119010000024,1700.7317230000044,1700.7317230000044,1700.7317230000044,1700.7317230000044,1700.7317230000044,1700.7317230000044,1704.2672010000097,['r'],1,[3.532302300009178],[None],1704.2681374000094,1704.2822865000053,1704.2822865000053,1704.2822865000053,1705.4836665000184,5,1.1983235999941826,5,1.1983235999941826,,,,,,,,sub148_AB,001,2026-02-03_10h29.36.909,recognitionstage,,2025.1.1,59.89763494339995,2026-02-03 10h30.29.213324 +0530,
,,,6,6,0,21,frames\Vid21_BB_T.png,frames\Vid21_L.png,['l'],1,[8.052930799982278],[None],5,1.646385400003055,,,,,0,6,6,20,1705.515171600011,,23,Male,Right handed,Normal,,,,,,,,,,,,,,,,,,,,,,,,,,,,,,,,,,,,,,,,1705.496580600011,1705.515171600011,1705.515171600011,1705.515171600011,1705.515171600011,1705.515171600011,1705.515171600011,1713.5686598000175,['l'],1,[8.052930799982278],[None],1713.5697696999996,1713.5817501000129,1713.5817501000129,1713.5817501000129,1715.2328416999953,5,1.646385400003055,5,1.646385400003055,,,,,,,,sub148_AB,001,2026-02-03_10h29.36.909,recognitionstage,,2025.1.1,59.89763494339995,2026-02-03 10h30.29.213324 +0530,
,,,7,7,0,8,frames\Vid8_BB_T.png,frames\Vid8_L.png,['l'],0,[3.8930887000169605],[None],3,1.6636622999794781,,,,,0,7,7,7,1715.2829557000077,,23,Male,Right handed,Normal,,,,,,,,,,,,,,,,,,,,,,,,,,,,,,,,,,,,,,,,1715.2712647000153,1715.2829557000077,1715.2829557000077,1715.2829557000077,1715.2829557000077,1715.2829557000077,1715.2829557000077,1719.1843564000155,['l'],0,[3.8930887000169605],[None],1719.185513000004,1719.1992274000077,1719.1992274000077,1719.1992274000077,1720.8663052000047,3,1.6636622999794781,3,1.6636622999794781,,,,,,,,sub148_AB,001,2026-02-03_10h29.36.909,recognitionstage,,2025.1.1,59.89763494339995,2026-02-03 10h30.29.213324 +0530,
,,,8,8,0,34,frames\Vid34_BB_T.png,frames\Vid34_L.png,['l'],1,[5.513610599999083],[None],5,1.4803984000172932,,,,,0,8,8,33,1720.8863444000017,,23,Male,Right handed,Normal,,,,,,,,,,,,,,,,,,,,,,,,,,,,,,,,,,,,,,,,1720.8756716999924,1720.8863444000017,1720.8863444000017,1720.8863444000017,1720.8863444000017,1720.8863444000017,1720.8863444000017,1726.4015737000154,['l'],1,[5.513610599999083],[None],1726.402549499995,1726.4151142000046,1726.4151142000046,1726.4151142000046,1727.8995122000051,5,1.4803984000172932,5,1.4803984000172932,,,,,,,,sub148_AB,001,2026-02-03_10h29.36.909,recognitionstage,,2025.1.1,59.89763494339995,2026-02-03 10h30.29.213324 +0530,
,,,9,9,0,7,frames\Vid7_EM_T.png,frames\Vid7_L.png,['l'],1,[6.683036100002937],[None],4,1.0467280000157189,,,,,0,9,9,6,1727.9490239000006,,23,Male,Right handed,Normal,,,,,,,,,,,,,,,,,,,,,,,,,,,,,,,,,,,,,,,,1727.9412658000074,1727.9490239000006,1727.9490239000006,1727.9490239000006,1727.9490239000006,1727.9490239000006,1727.9490239000006,1734.6351585999946,['l'],1,[6.683036100002937],[None],1734.6365827000118,1734.6484463000088,1734.6484463000088,1734.6484463000088,1735.6989694999938,4,1.0467280000157189,4,1.0467280000157189,,,,,,,,sub148_AB,001,2026-02-03_10h29.36.909,recognitionstage,,2025.1.1,59.89763494339995,2026-02-03 10h30.29.213324 +0530,
,,,10,10,0,38,frames\Vid38_EM_T.png,frames\Vid38_L.png,['l'],1,[4.240162000001874],[None],4,1.3312073999841232,,,,,0,10,10,37,1735.719863300008,,23,Male,Right handed,Normal,,,,,,,,,,,,,,,,,,,,,,,,,,,,,,,,,,,,,,,,1735.707997999998,1735.719863300008,1735.719863300008,1735.719863300008,1735.719863300008,1735.719863300008,1735.719863300008,1739.9672103000048,['l'],1,[4.240162000001874],[None],1739.9681072999956,1739.9822991999972,1739.9822991999972,1739.9822991999972,1741.3160942000104,4,1.3312073999841232,4,1.3312073999841232,,,,,,,,sub148_AB,001,2026-02-03_10h29.36.909,recognitionstage,,2025.1.1,59.89763494339995,2026-02-03 10h30.29.213324 +0530,
,,,11,11,0,24,frames\Vid24_BB_T.png,frames\Vid24_L.png,['r'],1,[2.9315988999733236],[None],5,1.4798110999981873,,,,,0,11,11,23,1741.3485171000066,,23,Male,Right handed,Normal,,,,,,,,,,,,,,,,,,,,,,,,,,,,,,,,,,,,,,,,1741.328405600012,1741.3485171000066,1741.3485171000066,1741.3485171000066,1741.3485171000066,1741.3485171000066,1741.3485171000066,1744.2851598999987,['r'],1,[2.9315988999733236],[None],1744.2866828000115,1744.299055600015,1744.299055600015,1744.299055600015,1745.783133399993,5,1.4798110999981873,5,1.4798110999981873,,,,,,,,sub148_AB,001,2026-02-03_10h29.36.909,recognitionstage,,2025.1.1,59.89763494339995,2026-02-03 10h30.29.213324 +0530,
,,,12,12,0,20,frames\Vid20_EM_T.png,frames\Vid20_L.png,['l'],0,[9.399315799993929],[None],2,2.8131098999874666,,,,,0,12,12,19,1745.800789800007,,23,Male,Right handed,Normal,,,,,,,,,,,,,,,,,,,,,,,,,,,,,,,,,,,,,,,,1745.7907465000171,1745.800789800007,1745.800789800007,1745.800789800007,1745.800789800007,1745.800789800007,1745.800789800007,1755.201924699999,['l'],0,[9.399315799993929],[None],1755.2030348000117,1755.2151595000178,1755.2151595000178,1755.2151595000178,1758.033555800008,2,2.8131098999874666,2,2.8131098999874666,,,,,,,,sub148_AB,001,2026-02-03_10h29.36.909,recognitionstage,,2025.1.1,59.89763494339995,2026-02-03 10h30.29.213324 +0530,
,,,13,13,0,25,frames\Vid25_BB_T.png,frames\Vid25_L.png,['l'],0,[5.327121800015448],[None],3,2.5464904999826103,,,,,0,13,13,24,1758.0649440000125,,23,Male,Right handed,Normal,,,,,,,,,,,,,,,,,,,,,,,,,,,,,,,,,,,,,,,,1758.0444455000106,1758.0649440000125,1758.0649440000125,1758.0649440000125,1758.0649440000125,1758.0649440000125,1758.0649440000125,1763.4011038000172,['l'],0,[5.327121800015448],[None],1763.4034673999995,1763.4156017999921,1763.4156017999921,1763.4156017999921,1765.9664145999996,3,2.5464904999826103,3,2.5464904999826103,,,,,,,,sub148_AB,001,2026-02-03_10h29.36.909,recognitionstage,,2025.1.1,59.89763494339995,2026-02-03 10h30.29.213324 +0530,
,,,14,14,0,6,frames\Vid6_BB_T.png,frames\Vid6_L.png,['r'],1,[3.967660900001647],[None],5,1.2655421000090428,,,,,0,14,14,5,1766.032317300007,,23,Male,Right handed,Normal,,,,,,,,,,,,,,,,,,,,,,,,,,,,,,,,,,,,,,,,1766.0112226000056,1766.032317300007,1766.032317300007,1766.032317300007,1766.032317300007,1766.032317300007,1766.032317300007,1770.0171775000053,['r'],1,[3.967660900001647],[None],1770.0179550000175,1770.0318461999996,1770.0318461999996,1770.0318461999996,1771.2990024000173,5,1.2655421000090428,5,1.2655421000090428,,,,,,,,sub148_AB,001,2026-02-03_10h29.36.909,recognitionstage,,2025.1.1,59.89763494339995,2026-02-03 10h30.29.213324 +0530,
,,,15,15,0,30,frames\Vid30_EM_T.png,frames\Vid30_L.png,['l'],1,[11.383327599993208],[None],1,2.248290100018494,,,,,0,15,15,29,1771.3205957000027,,23,Male,Right handed,Normal,,,,,,,,,,,,,,,,,,,,,,,,,,,,,,,,,,,,,,,,1771.3087809999997,1771.3205957000027,1771.3205957000027,1771.3205957000027,1771.3205957000027,1771.3205957000027,1771.3205957000027,1782.7168900000106,['l'],1,[11.383327599993208],[None],1782.7179783000029,1782.7324599999993,1782.7324599999993,1782.7324599999993,1784.9827095000073,1,2.248290100018494,1,2.248290100018494,,,,,,,,sub148_AB,001,2026-02-03_10h29.36.909,recognitionstage,,2025.1.1,59.89763494339995,2026-02-03 10h30.29.213324 +0530,
,,,16,16,0,40,frames\Vid40_EM_T.png,frames\Vid40_L.png,['r'],1,[5.63144420000026],[None],4,0.830948700022418,,,,,0,16,16,39,1785.0005017000076,,23,Male,Right handed,Normal,,,,,,,,,,,,,,,,,,,,,,,,,,,,,,,,,,,,,,,,1784.9899238999933,1785.0005017000076,1785.0005017000076,1785.0005017000076,1785.0005017000076,1785.0005017000076,1785.0005017000076,1790.634809900017,['r'],1,[5.63144420000026],[None],1790.635754500021,1790.6490709999925,1790.6490709999925,1790.6490709999925,1791.483235199994,4,0.830948700022418,4,0.830948700022418,,,,,,,,sub148_AB,001,2026-02-03_10h29.36.909,recognitionstage,,2025.1.1,59.89763494339995,2026-02-03 10h30.29.213324 +0530,
,,,17,17,0,17,frames\Vid17_BB_T.png,frames\Vid17_L.png,['l'],0,[5.94024499997613],[None],2,1.4975307999993674,,,,,0,17,17,16,1791.515738200018,,23,Male,Right handed,Normal,,,,,,,,,,,,,,,,,,,,,,,,,,,,,,,,,,,,,,,,1791.5066970000044,1791.515738200018,1791.515738200018,1791.515738200018,1791.515738200018,1791.515738200018,1791.515738200018,1797.4681603000208,['l'],0,[5.94024499997613],[None],1797.4692610000202,1797.4818588000198,1797.4818588000198,1797.4818588000198,1798.982387600001,2,1.4975307999993674,2,1.4975307999993674,,,,,,,,sub148_AB,001,2026-02-03_10h29.36.909,recognitionstage,,2025.1.1,59.89763494339995,2026-02-03 10h30.29.213324 +0530,
,,,18,18,0,12,frames\Vid12_EM_T.png,frames\Vid12_L.png,['r'],1,[2.693977700022515],[None],5,1.2151878000004217,,,,,0,18,18,11,1799.0339585000183,,23,Male,Right handed,Normal,,,,,,,,,,,,,,,,,,,,,,,,,,,,,,,,,,,,,,,,1799.0251871999935,1799.0339585000183,1799.0339585000183,1799.0339585000183,1799.0339585000183,1799.0339585000183,1799.0339585000183,1801.733901300002,['r'],1,[2.693977700022515],[None],1801.734894299996,1801.7488169000135,1801.7488169000135,1801.7488169000135,1802.965788600006,5,1.2151878000004217,5,1.2151878000004217,,,,,,,,sub148_AB,001,2026-02-03_10h29.36.909,recognitionstage,,2025.1.1,59.89763494339995,2026-02-03 10h30.29.213324 +0530,
,,,19,19,0,13,frames\Vid13_BB_T.png,frames\Vid13_L.png,['r'],0,[3.772812299983343],[None],2,1.8640771000063978,,,,,0,19,19,12,1803.0190940000175,,23,Male,Right handed,Normal,,,,,,,,,,,,,,,,,,,,,,,,,,,,,,,,,,,,,,,,1803.0000677999924,1803.0190940000175,1803.0190940000175,1803.0190940000175,1803.0190940000175,1803.0190940000175,1803.0190940000175,1806.8012916000152,['r'],0,[3.772812299983343],[None],1806.8026319000055,1806.8151249999937,1806.8151249999937,1806.8151249999937,1808.682571500016,2,1.8640771000063978,2,1.8640771000063978,,,,,,,,sub148_AB,001,2026-02-03_10h29.36.909,recognitionstage,,2025.1.1,59.89763494339995,2026-02-03 10h30.29.213324 +0530,
,,,20,20,0,18,frames\Vid18_EM_T.png,frames\Vid18_L.png,['l'],1,[4.490466200019],[None],2,0.9489589000004344,,,,,0,20,20,17,1808.7175527999934,,23,Male,Right handed,Normal,,,,,,,,,,,,,,,,,,,,,,,,,,,,,,,,,,,,,,,,1808.693273300014,1808.7175527999934,1808.7175527999934,1808.7175527999934,1808.7175527999934,1808.7175527999934,1808.7175527999934,1813.2171600000001,['l'],1,[4.490466200019],[None],1813.2179748000053,1813.2322227999975,1813.2322227999975,1813.2322227999975,1814.182676700002,2,0.9489589000004344,2,0.9489589000004344,,,,,,,,sub148_AB,001,2026-02-03_10h29.36.909,recognitionstage,,2025.1.1,59.89763494339995,2026-02-03 10h30.29.213324 +0530,
,,,21,21,0,10,frames\Vid10_BB_T.png,frames\Vid10_L.png,['l'],1,[4.822915199998533],[None],5,1.1151850000023842,,,,,0,21,21,9,1814.232943400013,,23,Male,Right handed,Normal,,,,,,,,,,,,,,,,,,,,,,,,,,,,,,,,,,,,,,,,1814.2244406999962,1814.232943400013,1814.232943400013,1814.232943400013,1814.232943400013,1814.232943400013,1814.232943400013,1819.0673997999984,['l'],1,[4.822915199998533],[None],1819.0683383000141,1819.0823358000198,1819.0823358000198,1819.0823358000198,1820.1991793000198,5,1.1151850000023842,5,1.1151850000023842,,,,,,,,sub148_AB,001,2026-02-03_10h29.36.909,recognitionstage,,2025.1.1,59.89763494339995,2026-02-03 10h30.29.213324 +0530,
,,,22,22,0,2,frames\Vid2_BB_T.png,frames\Vid2_L.png,['l'],1,[4.04365730000427],[None],5,0.9794339000072796,,,,,0,22,22,1,1820.2524725999974,,23,Male,Right handed,Normal,,,,,,,,,,,,,,,,,,,,,,,,,,,,,,,,,,,,,,,,1820.2378834999981,1820.2524725999974,1820.2524725999974,1820.2524725999974,1820.2524725999974,1820.2524725999974,1820.2524725999974,1824.3027027000207,['l'],1,[4.04365730000427],[None],1824.3040559999936,1824.3300874000124,1824.3300874000124,1824.3300874000124,1825.2990577000019,5,0.9794339000072796,5,0.9794339000072796,,,,,,,,sub148_AB,001,2026-02-03_10h29.36.909,recognitionstage,,2025.1.1,59.89763494339995,2026-02-03 10h30.29.213324 +0530,
,,,23,23,0,19,frames\Vid19_BB_T.png,frames\Vid19_L.png,['r'],1,[3.840993600024376],[None],3,2.44732340000337,,,,,0,23,23,18,1825.3349741999991,,23,Male,Right handed,Normal,,,,,,,,,,,,,,,,,,,,,,,,,,,,,,,,,,,,,,,,1825.3097741999954,1825.3349741999991,1825.3349741999991,1825.3349741999991,1825.3349741999991,1825.3349741999991,1825.3349741999991,1829.1845591000165,['r'],1,[3.840993600024376],[None],1829.185539099999,1829.1983629000024,1829.1983629000024,1829.1983629000024,1831.6494242000044,3,2.44732340000337,3,2.44732340000337,,,,,,,,sub148_AB,001,2026-02-03_10h29.36.909,recognitionstage,,2025.1.1,59.89763494339995,2026-02-03 10h30.29.213324 +0530,
,,,24,24,0,27,frames\Vid27_BB_T.png,frames\Vid27_L.png,['l'],1,[4.484755699988455],[None],3,0.9296777000126895,,,,,0,24,24,26,1831.667285100004,,23,Male,Right handed,Normal,,,,,,,,,,,,,,,,,,,,,,,,,,,,,,,,,,,,,,,,1831.6577949000057,1831.667285100004,1831.667285100004,1831.667285100004,1831.667285100004,1831.667285100004,1831.667285100004,1836.1685461000015,['l'],1,[4.484755699988455],[None],1836.1701501999923,1836.1968561999965,1836.1968561999965,1836.1968561999965,1837.1162464999943,3,0.9296777000126895,3,0.9296777000126895,,,,,,,,sub148_AB,001,2026-02-03_10h29.36.909,recognitionstage,,2025.1.1,59.89763494339995,2026-02-03 10h30.29.213324 +0530,
,,,25,25,0,29,frames\Vid29_BB_T.png,frames\Vid29_L.png,['r'],1,[7.65932750000502],[None],2,1.814996200002497,,,,,0,25,25,28,1837.148593799997,,23,Male,Right handed,Normal,,,,,,,,,,,,,,,,,,,,,,,,,,,,,,,,,,,,,,,,1837.1274673000153,1837.148593799997,1837.148593799997,1837.148593799997,1837.148593799997,1837.148593799997,1837.148593799997,1844.8172698999988,['r'],1,[7.65932750000502],[None],1844.8181007000094,1844.8322285000177,1844.8322285000177,1844.8322285000177,1846.6489804000012,2,1.814996200002497,2,1.814996200002497,,,,,,,,sub148_AB,001,2026-02-03_10h29.36.909,recognitionstage,,2025.1.1,59.89763494339995,2026-02-03 10h30.29.213324 +0530,
,,,26,26,0,3,frames\Vid3_BB_T.png,frames\Vid3_L.png,['r'],1,[3.7408300999959465],[None],5,1.0993930000113323,,,,,0,26,26,2,1846.6990463999973,,23,Male,Right handed,Normal,,,,,,,,,,,,,,,,,,,,,,,,,,,,,,,,,,,,,,,,1846.688767500018,1846.6990463999973,1846.6990463999973,1846.6990463999973,1846.6990463999973,1846.6990463999973,1846.6990463999973,1850.4499999000109,['r'],1,[3.7408300999959465],[None],1850.4506084000168,1850.4650510000065,1850.4650510000065,1850.4650510000065,1851.5663064999972,5,1.0993930000113323,5,1.0993930000113323,,,,,,,,sub148_AB,001,2026-02-03_10h29.36.909,recognitionstage,,2025.1.1,59.89763494339995,2026-02-03 10h30.29.213324 +0530,
,,,27,27,0,28,frames\Vid28_EM_T.png,frames\Vid28_L.png,['r'],1,[4.863526500004809],[None],5,1.7467877000162844,,,,,0,27,27,27,1851.6007237000158,,23,Male,Right handed,Normal,,,,,,,,,,,,,,,,,,,,,,,,,,,,,,,,,,,,,,,,1851.5767990000022,1851.6007237000158,1851.6007237000158,1851.6007237000158,1851.6007237000158,1851.6007237000158,1851.6007237000158,1856.4687603000202,['r'],1,[4.863526500004809],[None],1856.470020000008,1856.4969907000195,1856.4969907000195,1856.4969907000195,1858.2322308000003,5,1.7467877000162844,5,1.7467877000162844,,,,,,,,sub148_AB,001,2026-02-03_10h29.36.909,recognitionstage,,2025.1.1,59.89763494339995,2026-02-03 10h30.29.213324 +0530,
,,,28,28,0,15,frames\Vid15_BB_T.png,frames\Vid15_L.png,['l'],0,[5.932115200004773],[None],1,0.9823493000003509,,,,,0,28,28,14,1858.2997040000046,,23,Male,Right handed,Normal,,,,,,,,,,,,,,,,,,,,,,,,,,,,,,,,,,,,,,,,1858.2787700000044,1858.2997040000046,1858.2997040000046,1858.2997040000046,1858.2997040000046,1858.2997040000046,1858.2997040000046,1864.2336668000207,['l'],0,[5.932115200004773],[None],1864.2344162999943,1864.2489064999972,1864.2489064999972,1864.2489064999972,1865.2324400999933,1,0.9823493000003509,1,0.9823493000003509,,,,,,,,sub148_AB,001,2026-02-03_10h29.36.909,recognitionstage,,2025.1.1,59.89763494339995,2026-02-03 10h30.29.213324 +0530,
,,,29,29,0,9,frames\Vid9_EM_T.png,frames\Vid9_L.png,['l'],0,[7.562726800009841],[None],2,1.7485085999942385,,,,,0,29,29,8,1865.285200400016,,23,Male,Right handed,Normal,,,,,,,,,,,,,,,,,,,,,,,,,,,,,,,,,,,,,,,,1865.269235899992,1865.285200400016,1865.285200400016,1865.285200400016,1865.285200400016,1865.285200400016,1865.285200400016,1872.8510678000166,['l'],0,[7.562726800009841],[None],1872.851881700015,1872.865717800014,1872.865717800014,1872.865717800014,1874.615784499998,2,1.7485085999942385,2,1.7485085999942385,,,,,,,,sub148_AB,001,2026-02-03_10h29.36.909,recognitionstage,,2025.1.1,59.89763494339995,2026-02-03 10h30.29.213324 +0530,
,,,30,30,0,16,frames\Vid16_EM_T.png,frames\Vid16_L.png,['l'],1,[5.843885100010084],[None],2,0.6949821999878623,,,,,0,30,30,15,1874.6682871000085,,23,Male,Right handed,Normal,,,,,,,,,,,,,,,,,,,,,,,,,,,,,,,,,,,,,,,,1874.6552763000072,1874.6682871000085,1874.6682871000085,1874.6682871000085,1874.6682871000085,1874.6682871000085,1874.6682871000085,1880.5199981000042,['l'],1,[5.843885100010084],[None],1880.5214462000004,1880.5470041999943,1880.5470041999943,1880.5470041999943,1881.232962900016,2,0.6949821999878623,2,0.6949821999878623,,,,,,,,sub148_AB,001,2026-02-03_10h29.36.909,recognitionstage,,2025.1.1,59.89763494339995,2026-02-03 10h30.29.213324 +0530,
,,,31,31,0,36,frames\Vid36_BB_T.png,frames\Vid36_L.png,['l'],1,[4.339922099985415],[None],2,0.5474194000125863,,,,,0,31,31,35,1881.2680606000067,,23,Male,Right handed,Normal,,,,,,,,,,,,,,,,,,,,,,,,,,,,,,,,,,,,,,,,1881.245612800005,1881.2680606000067,1881.2680606000067,1881.2680606000067,1881.2680606000067,1881.2680606000067,1881.2680606000067,1885.618301600014,['l'],1,[4.339922099985415],[None],1885.6193219000124,1885.6319823999947,1885.6319823999947,1885.6319823999947,1886.1828459000099,2,0.5474194000125863,2,0.5474194000125863,,,,,,,,sub148_AB,001,2026-02-03_10h29.36.909,recognitionstage,,2025.1.1,59.89763494339995,2026-02-03 10h30.29.213324 +0530,
,,,32,32,0,31,frames\Vid31_EM_T.png,frames\Vid31_L.png,['r'],1,[3.7036015999910887],[None],5,1.4632783999841195,,,,,0,32,32,30,1886.200391899998,,23,Male,Right handed,Normal,,,,,,,,,,,,,,,,,,,,,,,,,,,,,,,,,,,,,,,,1886.1906172000163,1886.200391899998,1886.200391899998,1886.200391899998,1886.200391899998,1886.200391899998,1886.200391899998,1889.918862099992,['r'],1,[3.7036015999910887],[None],1889.9200301000092,1889.932121299993,1889.932121299993,1889.932121299993,1891.3995424000022,5,1.4632783999841195,5,1.4632783999841195,,,,,,,,sub148_AB,001,2026-02-03_10h29.36.909,recognitionstage,,2025.1.1,59.89763494339995,2026-02-03 10h30.29.213324 +0530,
,,,33,33,0,39,frames\Vid39_BB_T.png,frames\Vid39_L.png,['r'],0,[5.3747459999867715],[None],5,1.3818089000124019,,,,,0,33,33,38,1891.4173035999993,,23,Male,Right handed,Normal,,,,,,,,,,,,,,,,,,,,,,,,,,,,,,,,,,,,,,,,1891.4081813000084,1891.4173035999993,1891.4173035999993,1891.4173035999993,1891.4173035999993,1891.4173035999993,1891.4173035999993,1896.8005851000198,['r'],0,[5.3747459999867715],[None],1896.8015830999939,1896.8155614999996,1896.8155614999996,1896.8155614999996,1898.1996108000167,5,1.3818089000124019,5,1.3818089000124019,,,,,,,,sub148_AB,001,2026-02-03_10h29.36.909,recognitionstage,,2025.1.1,59.89763494339995,2026-02-03 10h30.29.213324 +0530,
,,,34,34,0,11,frames\Vid11_EM_T.png,frames\Vid11_L.png,['r'],1,[4.911166800011415],[None],5,1.081519200000912,,,,,0,34,34,10,1898.248754500004,,23,Male,Right handed,Normal,,,,,,,,,,,,,,,,,,,,,,,,,,,,,,,,,,,,,,,,1898.2421724000014,1898.248754500004,1898.248754500004,1898.248754500004,1898.248754500004,1898.248754500004,1898.248754500004,1903.1679888000072,['r'],1,[4.911166800011415],[None],1903.1690241000033,1903.1816685000085,1903.1816685000085,1903.1816685000085,1904.266591099993,5,1.081519200000912,5,1.081519200000912,,,,,,,,sub148_AB,001,2026-02-03_10h29.36.909,recognitionstage,,2025.1.1,59.89763494339995,2026-02-03 10h30.29.213324 +0530,
,,,35,35,0,22,frames\Vid22_EM_T.png,frames\Vid22_L.png,['l'],1,[5.331058200012194],[None],5,1.4327026999962982,,,,,0,35,35,21,1904.3008094000106,,23,Male,Right handed,Normal,,,,,,,,,,,,,,,,,,,,,,,,,,,,,,,,,,,,,,,,1904.2812545000052,1904.3008094000106,1904.3008094000106,1904.3008094000106,1904.3008094000106,1904.3008094000106,1904.3008094000106,1909.6329337000207,['l'],1,[5.331058200012194],[None],1909.6336392000085,1909.6487660999992,1909.6487660999992,1909.6487660999992,1911.0832063000125,5,1.4327026999962982,5,1.4327026999962982,,,,,,,,sub148_AB,001,2026-02-03_10h29.36.909,recognitionstage,,2025.1.1,59.89763494339995,2026-02-03 10h30.29.213324 +0530,
,,,36,36,0,1,frames\Vid1_EM_T.png,frames\Vid1_L.png,['l'],1,[6.842663799994625],[None],5,1.065223799989326,,,,,0,36,36,0,1911.1492163999937,,23,Male,Right handed,Normal,,,,,,,,,,,,,,,,,,,,,,,,,,,,,,,,,,,,,,,,1911.1294874000014,1911.1492163999937,1911.1492163999937,1911.1492163999937,1911.1492163999937,1911.1492163999937,1911.1492163999937,1918.0006347000017,['l'],1,[6.842663799994625],[None],1918.001560100005,1918.0152697000012,1918.0152697000012,1918.0152697000012,1919.0830158000172,5,1.065223799989326,5,1.065223799989326,,,,,,,,sub148_AB,001,2026-02-03_10h29.36.909,recognitionstage,,2025.1.1,59.89763494339995,2026-02-03 10h30.29.213324 +0530,
,,,37,37,0,5,frames\Vid5_EM_T.png,frames\Vid5_L.png,['l'],1,[6.5131759000069],[None],1,2.996043199993437,,,,,0,37,37,4,1919.135167200002,,23,Male,Right handed,Normal,,,,,,,,,,,,,,,,,,,,,,,,,,,,,,,,,,,,,,,,1919.1143909000093,1919.135167200002,1919.135167200002,1919.135167200002,1919.135167200002,1919.135167200002,1919.135167200002,1925.6519446000166,['l'],1,[6.5131759000069],[None],1925.6537339999923,1925.6801659000048,1925.6801659000048,1925.6801659000048,1928.6668487999996,1,2.996043199993437,1,2.996043199993437,,,,,,,,sub148_AB,001,2026-02-03_10h29.36.909,recognitionstage,,2025.1.1,59.89763494339995,2026-02-03 10h30.29.213324 +0530,
,,,38,38,0,35,frames\Vid35_EM_T.png,frames\Vid35_L.png,['l'],1,[4.515360699995654],[None],2,1.2306934000225738,,,,,0,38,38,34,1928.7006188000087,,23,Male,Right handed,Normal,,,,,,,,,,,,,,,,,,,,,,,,,,,,,,,,,,,,,,,,1928.6764073999948,1928.7006188000087,1928.7006188000087,1928.7006188000087,1928.7006188000087,1928.7006188000087,1928.7006188000087,1933.2184411000053,['l'],1,[4.515360699995654],[None],1933.2194931000122,1933.2317640999972,1933.2317640999972,1933.2317640999972,1934.4664574000053,2,1.2306934000225738,2,1.2306934000225738,,,,,,,,sub148_AB,001,2026-02-03_10h29.36.909,recognitionstage,,2025.1.1,59.89763494339995,2026-02-03 10h30.29.213324 +0530,
,,,39,39,0,26,frames\Vid26_EM_T.png,frames\Vid26_L.png,['l'],1,[3.493556700006593],[None],5,1.5645400999928825,,,,,0,39,39,25,1934.4984859999968,,23,Male,Right handed,Normal,,,,,,,,,,,,,,,,,,,,,,,,,,,,,,,,,,,,,,,,1934.4826745000028,1934.4984859999968,1934.4984859999968,1934.4984859999968,1934.4984859999968,1934.4984859999968,1934.4984859999968,1938.0009548999951,['l'],1,[3.493556700006593],[None],1938.0021758000075,1938.0155572000076,1938.0155572000076,1938.0155572000076,1939.5833655000024,5,1.5645400999928825,5,1.5645400999928825,,,,,,,,sub148_AB,001,2026-02-03_10h29.36.909,recognitionstage,,2025.1.1,59.89763494339995,2026-02-03 10h30.29.213324 +0530,
,,,,,,,,,,,,,,,,,,,,,,,,,23,Male,Right handed,Normal,,,,,,,,,,,,,,,,,,,,,,,,,,,,,,,,,,,,,,,,,,,,,,,,,,,,,,,,,,,,,1939.5834880000039,1939.599078500003,1939.599078500003,1943.1347494999936,space,3.529141899984097,None,sub148_AB,001,2026-02-03_10h29.36.909,recognitionstage,,2025.1.1,59.89763494339995,2026-02-03 10h30.29.213324 +0530,
