path,duration,is_repeat,thisN,thisTrialN,thisRepN,movie_id,target_img,lure_img,resp.keys,resp.corr,resp.rt,resp.duration,conf_radio.response,conf_radio.rt,movie.thisRepN,movie.thisTrialN,movie.thisN,movie.thisIndex,recogloop.thisRepN,recogloop.thisTrialN,recogloop.thisN,recogloop.thisIndex,thisRow.t,notes,age,gender,handedness,vision,caffeine_2h,alcohol_smoke_12h,demographics.started,demographics.stopped,Instructions.started,text1.started,key_resp.started,Instructions.stopped,key_resp.keys,key_resp.rt,key_resp.duration,instruction_2.started,text2.started,key_resp_2.started,instruction_2.stopped,key_resp_2.keys,key_resp_2.rt,key_resp_2.duration,Videos.started,movie_2.started,vigilance_resp.started,movie_2.stopped,Videos.stopped,movie.vigilance_resp.keys,vigilance_pressed,vigilance_correct,ISI.started,text.started,ISI.stopped,movie.vigilance_resp.rt,movie.vigilance_resp.duration,text.stopped,recognition.started,text_4.started,key_resp_3.started,recognition.stopped,key_resp_3.keys,key_resp_3.rt,key_resp_3.duration,recognition_task.started,leftimage.started,rightimage.started,resp.started,frames_question.started,right_label.started,left_label.started,recognition_task.stopped,recogloop.resp.keys,recogloop.resp.corr,recogloop.resp.rt,recogloop.resp.duration,confidence.started,conf_text.started,conf_radio.started,conf_label.started,confidence.stopped,recogloop.conf_radio.response,recogloop.conf_radio.rt,confidence,confidence_rt,thank_you.started,text_6.started,key_resp_4.started,thank_you.stopped,key_resp_4.keys,participant,session,date,expName,expVersion,psychopyVersion,frameRate,expStart,...103
,,,,,,,,,,,,,,,,,,,,,,,,,20,Male,Right handed,Corrected to normal,Caffeine consumed in last 2 hours?,Alcohol or smoking in last 12 hours?,0.006633500001044013,0.00902950000090641,,,,,,,,,,,,,,,,,,,,,,,,,,,,,,,,,,,,,,,,,,,,,,,,,,,,,,,,,,,,,,sub24_AB,001,2026-01-18_18h04.00.527,recognitionstage,,2025.1.1,60.108507878506394,2026-01-18 18h08.59.640287 +0530,
,,,,,,,,,,,,,,,,,,,,,,,,,20,Male,Right handed,Corrected to normal,,,,,0.009052599998540245,0.025730400000611553,0.025730400000611553,13.310182500001247,space,13.278246099998796,None,,,,,,,,,,,,,,,,,,,,,,,,,,,,,,,,,,,,,,,,,,,,,,,,,,,,,,,sub24_AB,001,2026-01-18_18h04.00.527,recognitionstage,,2025.1.1,60.108507878506394,2026-01-18 18h08.59.640287 +0530,
,,,,,,,,,,,,,,,,,,,,,,,,,20,Male,Right handed,Corrected to normal,,,,,,,,,,,,13.310240899998462,13.326691300000675,13.326691300000675,27.911056299999473,space,14.577413799997885,None,,,,,,,,,,,,,,,,,,,,,,,,,,,,,,,,,,,,,,,,,,,,,,,,sub24_AB,001,2026-01-18_18h04.00.527,recognitionstage,,2025.1.1,60.108507878506394,2026-01-18 18h08.59.640287 +0530,
abrupt_videos\abrupt_8.mp4,24,0,44,44,0,,,,,,,,,,0,44,44,9,,,,,1518.1755941999982,,20,Male,Right handed,Corrected to normal,,,,,,,,,,,,,,,,,,,1518.1297669000014,1518.1755941999982,1518.1755941999982,1543.2082472000002,1543.065881999999,None,0,1,1543.2018852,1543.2082472000002,1545.6948979000008,7.002437399998598,None,1545.7098875999982,1545.6949765999998,1545.7098875999982,1545.7098875999982,1582.1439136000008,space,36.41811149999921,None,,,,,,,,,,,,,,,,,,,,,,,,,,,sub24_AB,001,2026-01-18_18h04.00.527,recognitionstage,,2025.1.1,60.108507878506394,2026-01-18 18h08.59.640287 +0530,
,,,0,0,0,10,frames\Vid10_BB_T.png,frames\Vid10_L.png,['r'],1,[13.375871199998073],[None],5,18.1810536999983,,,,,0,0,0,9,1582.208118999999,,20,Male,Right handed,Corrected to normal,,,,,,,,,,,,,,,,,,,,,,,,,,,,,,,,,,,,,,,,1582.193972500001,1582.208118999999,1582.208118999999,1582.208118999999,1582.208118999999,1582.208118999999,1582.208118999999,1595.5949733999987,['r'],1,[13.375871199998073],[None],1595.5959793000002,1595.6237244000004,1595.6237244000004,1595.6237244000004,1613.7925539999997,5,18.1810536999983,5,18.1810536999983,,,,,,sub24_AB,001,2026-01-18_18h04.00.527,recognitionstage,,2025.1.1,60.108507878506394,2026-01-18 18h08.59.640287 +0530,
,,,1,1,0,17,frames\Vid17_BB_T.png,frames\Vid17_L.png,['l'],1,[8.845953200001532],[None],2,3.0647844999984954,,,,,0,1,1,16,1613.857963800001,,20,Male,Right handed,Corrected to normal,,,,,,,,,,,,,,,,,,,,,,,,,,,,,,,,,,,,,,,,1613.8401941999982,1613.857963800001,1613.857963800001,1613.857963800001,1613.857963800001,1613.857963800001,1613.857963800001,1622.7111994000006,['l'],1,[8.845953200001532],[None],1622.7119552000004,1622.7255038000003,1622.7255038000003,1622.7255038000003,1625.7925068000004,2,3.0647844999984954,2,3.0647844999984954,,,,,,sub24_AB,001,2026-01-18_18h04.00.527,recognitionstage,,2025.1.1,60.108507878506394,2026-01-18 18h08.59.640287 +0530,
,,,2,2,0,5,frames\Vid5_EM_T.png,frames\Vid5_L.png,['r'],1,[5.139849200000754],[None],4,1.7472151000001759,,,,,0,2,2,4,1625.8439867999987,,20,Male,Right handed,Corrected to normal,,,,,,,,,,,,,,,,,,,,,,,,,,,,,,,,,,,,,,,,1625.8232204999986,1625.8439867999987,1625.8439867999987,1625.8439867999987,1625.8439867999987,1625.8439867999987,1625.8439867999987,1630.9948183999986,['r'],1,[5.139849200000754],[None],1630.9958861999985,1631.0087563000016,1631.0087563000016,1631.0087563000016,1632.7598338999996,4,1.7472151000001759,4,1.7472151000001759,,,,,,sub24_AB,001,2026-01-18_18h04.00.527,recognitionstage,,2025.1.1,60.108507878506394,2026-01-18 18h08.59.640287 +0530,
,,,3,3,0,22,frames\Vid22_EM_T.png,frames\Vid22_L.png,['l'],0,[17.48557719999735],[None],4,1.8819929000019329,,,,,0,3,3,21,1632.7943317999998,,20,Male,Right handed,Corrected to normal,,,,,,,,,,,,,,,,,,,,,,,,,,,,,,,,,,,,,,,,1632.7725089000014,1632.7943317999998,1632.7943317999998,1632.7943317999998,1632.7943317999998,1632.7943317999998,1632.7943317999998,1650.2943177999987,['l'],0,[17.48557719999735],[None],1650.2952681999996,1650.3092494999983,1650.3092494999983,1650.3092494999983,1652.1927485999986,4,1.8819929000019329,4,1.8819929000019329,,,,,,sub24_AB,001,2026-01-18_18h04.00.527,recognitionstage,,2025.1.1,60.108507878506394,2026-01-18 18h08.59.640287 +0530,
,,,4,4,0,7,frames\Vid7_EM_T.png,frames\Vid7_L.png,['l'],0,[4.156373100002384],[None],5,1.7325901000003796,,,,,0,4,4,6,1652.259505099999,,20,Male,Right handed,Corrected to normal,,,,,,,,,,,,,,,,,,,,,,,,,,,,,,,,,,,,,,,,1652.2367458000008,1652.259505099999,1652.259505099999,1652.259505099999,1652.259505099999,1652.259505099999,1652.259505099999,1656.427727899998,['l'],0,[4.156373100002384],[None],1656.428818299999,1656.4423325999996,1656.4423325999996,1656.4423325999996,1658.1759668000013,5,1.7325901000003796,5,1.7325901000003796,,,,,,sub24_AB,001,2026-01-18_18h04.00.527,recognitionstage,,2025.1.1,60.108507878506394,2026-01-18 18h08.59.640287 +0530,
,,,5,5,0,8,frames\Vid8_BB_T.png,frames\Vid8_L.png,['r'],1,[6.443009999999049],[None],5,1.4143539999968198,,,,,0,5,5,7,1658.2289898999989,,20,Male,Right handed,Corrected to normal,,,,,,,,,,,,,,,,,,,,,,,,,,,,,,,,,,,,,,,,1658.2158815000003,1658.2289898999989,1658.2289898999989,1658.2289898999989,1658.2289898999989,1658.2289898999989,1658.2289898999989,1664.6777595999993,['r'],1,[6.443009999999049],[None],1664.6786250000005,1664.692061499998,1664.692061499998,1664.692061499998,1666.1098542,5,1.4143539999968198,5,1.4143539999968198,,,,,,sub24_AB,001,2026-01-18_18h04.00.527,recognitionstage,,2025.1.1,60.108507878506394,2026-01-18 18h08.59.640287 +0530,
,,,6,6,0,30,frames\Vid30_EM_T.png,frames\Vid30_L.png,['l'],1,[9.053902600000583],[None],4,1.0323370000005525,,,,,0,6,6,29,1666.1299489999983,,20,Male,Right handed,Corrected to normal,,,,,,,,,,,,,,,,,,,,,,,,,,,,,,,,,,,,,,,,1666.1196081999988,1666.1299489999983,1666.1299489999983,1666.1299489999983,1666.1299489999983,1666.1299489999983,1666.1299489999983,1675.1937078999981,['l'],1,[9.053902600000583],[None],1675.1947086,1675.2092670999991,1675.2092670999991,1675.2092670999991,1676.2432714999995,4,1.0323370000005525,4,1.0323370000005525,,,,,,sub24_AB,001,2026-01-18_18h04.00.527,recognitionstage,,2025.1.1,60.108507878506394,2026-01-18 18h08.59.640287 +0530,
,,,7,7,0,2,frames\Vid2_BB_T.png,frames\Vid2_L.png,['r'],1,[8.450184999997873],[None],5,1.7982148999981291,,,,,0,7,7,1,1676.2937520999985,,20,Male,Right handed,Corrected to normal,,,,,,,,,,,,,,,,,,,,,,,,,,,,,,,,,,,,,,,,1676.2840957000008,1676.2937520999985,1676.2937520999985,1676.2937520999985,1676.2937520999985,1676.2937520999985,1676.2937520999985,1684.7451070999996,['r'],1,[8.450184999997873],[None],1684.7461330000006,1684.758514699999,1684.758514699999,1684.758514699999,1686.5594267999986,5,1.7982148999981291,5,1.7982148999981291,,,,,,sub24_AB,001,2026-01-18_18h04.00.527,recognitionstage,,2025.1.1,60.108507878506394,2026-01-18 18h08.59.640287 +0530,
,,,8,8,0,1,frames\Vid1_EM_T.png,frames\Vid1_L.png,['l'],1,[10.442747500001133],[None],3,1.8311737000003632,,,,,0,8,8,0,1686.629308399999,,20,Male,Right handed,Corrected to normal,,,,,,,,,,,,,,,,,,,,,,,,,,,,,,,,,,,,,,,,1686.6068538,1686.629308399999,1686.629308399999,1686.629308399999,1686.629308399999,1686.629308399999,1686.629308399999,1697.0778272999996,['l'],1,[10.442747500001133],[None],1697.0787530999987,1697.0922199000015,1697.0922199000015,1697.0922199000015,1698.925855900001,3,1.8311737000003632,3,1.8311737000003632,,,,,,sub24_AB,001,2026-01-18_18h04.00.527,recognitionstage,,2025.1.1,60.108507878506394,2026-01-18 18h08.59.640287 +0530,
,,,9,9,0,37,frames\Vid37_BB_T.png,frames\Vid37_L.png,['l'],1,[4.878259799999796],[None],5,1.6135256000015943,,,,,0,9,9,36,1698.9618719999999,,20,Male,Right handed,Corrected to normal,,,,,,,,,,,,,,,,,,,,,,,,,,,,,,,,,,,,,,,,1698.937627299998,1698.9618719999999,1698.9618719999999,1698.9618719999999,1698.9618719999999,1698.9618719999999,1698.9618719999999,1703.845164899998,['l'],1,[4.878259799999796],[None],1703.8461567000013,1703.8586484000007,1703.8586484000007,1703.8586484000007,1705.4764488,5,1.6135256000015943,5,1.6135256000015943,,,,,,sub24_AB,001,2026-01-18_18h04.00.527,recognitionstage,,2025.1.1,60.108507878506394,2026-01-18 18h08.59.640287 +0530,
,,,10,10,0,33,frames\Vid33_BB_T.png,frames\Vid33_L.png,['l'],1,[4.419396199999028],[None],5,1.464792499999021,,,,,0,10,10,32,1705.5090749999981,,20,Male,Right handed,Corrected to normal,,,,,,,,,,,,,,,,,,,,,,,,,,,,,,,,,,,,,,,,1705.4872270999986,1705.5090749999981,1705.5090749999981,1705.5090749999981,1705.5090749999981,1705.5090749999981,1705.5090749999981,1709.9444760000006,['l'],1,[4.419396199999028],[None],1709.9455794999994,1709.9589985999992,1709.9589985999992,1709.9589985999992,1711.4270576999988,5,1.464792499999021,5,1.464792499999021,,,,,,sub24_AB,001,2026-01-18_18h04.00.527,recognitionstage,,2025.1.1,60.108507878506394,2026-01-18 18h08.59.640287 +0530,
,,,11,11,0,29,frames\Vid29_BB_T.png,frames\Vid29_L.png,['l'],1,[3.82931169999938],[None],5,0.7645746000016516,,,,,0,11,11,28,1711.4586980999993,,20,Male,Right handed,Corrected to normal,,,,,,,,,,,,,,,,,,,,,,,,,,,,,,,,,,,,,,,,1711.4393120999994,1711.4586980999993,1711.4586980999993,1711.4586980999993,1711.4586980999993,1711.4586980999993,1711.4586980999993,1715.2943693999987,['l'],1,[3.82931169999938],[None],1715.295538899998,1715.3090997,1715.3090997,1715.3090997,1716.0762203999984,5,0.7645746000016516,5,0.7645746000016516,,,,,,sub24_AB,001,2026-01-18_18h04.00.527,recognitionstage,,2025.1.1,60.108507878506394,2026-01-18 18h08.59.640287 +0530,
,,,12,12,0,3,frames\Vid3_BB_T.png,frames\Vid3_L.png,['r'],1,[5.1776692000021285],[None],5,1.0307909000002837,,,,,0,12,12,2,1716.1262831999993,,20,Male,Right handed,Corrected to normal,,,,,,,,,,,,,,,,,,,,,,,,,,,,,,,,,,,,,,,,1716.1151138999994,1716.1262831999993,1716.1262831999993,1716.1262831999993,1716.1262831999993,1716.1262831999993,1716.1262831999993,1721.3112264999982,['r'],1,[5.1776692000021285],[None],1721.3125562999994,1721.3254936999983,1721.3254936999983,1721.3254936999983,1722.3595668999988,5,1.0307909000002837,5,1.0307909000002837,,,,,,sub24_AB,001,2026-01-18_18h04.00.527,recognitionstage,,2025.1.1,60.108507878506394,2026-01-18 18h08.59.640287 +0530,
,,,13,13,0,18,frames\Vid18_EM_T.png,frames\Vid18_L.png,['r'],1,[18.86912890000167],[None],3,1.4321371000005456,,,,,0,13,13,17,1722.394630499999,,20,Male,Right handed,Corrected to normal,,,,,,,,,,,,,,,,,,,,,,,,,,,,,,,,,,,,,,,,1722.3702933999994,1722.394630499999,1722.394630499999,1722.394630499999,1722.394630499999,1722.394630499999,1722.394630499999,1741.2776199,['r'],1,[18.86912890000167],[None],1741.2785248,1741.292263299998,1741.292263299998,1741.292263299998,1742.7263423000004,3,1.4321371000005456,3,1.4321371000005456,,,,,,sub24_AB,001,2026-01-18_18h04.00.527,recognitionstage,,2025.1.1,60.108507878506394,2026-01-18 18h08.59.640287 +0530,
,,,14,14,0,28,frames\Vid28_EM_T.png,frames\Vid28_L.png,['l'],1,[3.8713873000015155],[None],5,1.8971383000025526,,,,,0,14,14,27,1742.7445488999983,,20,Male,Right handed,Corrected to normal,,,,,,,,,,,,,,,,,,,,,,,,,,,,,,,,,,,,,,,,1742.7360966000015,1742.7445488999983,1742.7445488999983,1742.7445488999983,1742.7445488999983,1742.7445488999983,1742.7445488999983,1746.6282380000011,['l'],1,[3.8713873000015155],[None],1746.629521499999,1746.6426528999982,1746.6426528999982,1746.6426528999982,1748.5438780000004,5,1.8971383000025526,5,1.8971383000025526,,,,,,sub24_AB,001,2026-01-18_18h04.00.527,recognitionstage,,2025.1.1,60.108507878506394,2026-01-18 18h08.59.640287 +0530,
,,,15,15,0,24,frames\Vid24_BB_T.png,frames\Vid24_L.png,['l'],1,[6.640259400002833],[None],5,0.7142839999978605,,,,,0,15,15,23,1748.5757310000008,,20,Male,Right handed,Corrected to normal,,,,,,,,,,,,,,,,,,,,,,,,,,,,,,,,,,,,,,,,1748.5587941000013,1748.5757310000008,1748.5757310000008,1748.5757310000008,1748.5757310000008,1748.5757310000008,1748.5757310000008,1755.2276629000007,['l'],1,[6.640259400002833],[None],1755.2286148999992,1755.2421501999997,1755.2421501999997,1755.2421501999997,1755.9605975999984,5,0.7142839999978605,5,0.7142839999978605,,,,,,sub24_AB,001,2026-01-18_18h04.00.527,recognitionstage,,2025.1.1,60.108507878506394,2026-01-18 18h08.59.640287 +0530,
,,,16,16,0,19,frames\Vid19_BB_T.png,frames\Vid19_L.png,['l'],0,[5.567580099999759],[None],3,1.548619699999108,,,,,0,16,16,18,1755.992327699998,,20,Male,Right handed,Corrected to normal,,,,,,,,,,,,,,,,,,,,,,,,,,,,,,,,,,,,,,,,1755.9737233999986,1755.992327699998,1755.992327699998,1755.992327699998,1755.992327699998,1755.992327699998,1755.992327699998,1761.5612230000006,['l'],0,[5.567580099999759],[None],1761.5624523000006,1761.5761321999998,1761.5761321999998,1761.5761321999998,1763.1264878000002,3,1.548619699999108,3,1.548619699999108,,,,,,sub24_AB,001,2026-01-18_18h04.00.527,recognitionstage,,2025.1.1,60.108507878506394,2026-01-18 18h08.59.640287 +0530,
,,,17,17,0,31,frames\Vid31_EM_T.png,frames\Vid31_L.png,['l'],1,[4.223538700000063],[None],5,1.4632457999978215,,,,,0,17,17,30,1763.1445176999987,,20,Male,Right handed,Corrected to normal,,,,,,,,,,,,,,,,,,,,,,,,,,,,,,,,,,,,,,,,1763.1364107000009,1763.1445176999987,1763.1445176999987,1763.1445176999987,1763.1445176999987,1763.1445176999987,1763.1445176999987,1767.3791292999995,['l'],1,[4.223538700000063],[None],1767.380168399999,1767.392136399998,1767.392136399998,1767.392136399998,1768.8600527999988,5,1.4632457999978215,5,1.4632457999978215,,,,,,sub24_AB,001,2026-01-18_18h04.00.527,recognitionstage,,2025.1.1,60.108507878506394,2026-01-18 18h08.59.640287 +0530,
,,,18,18,0,36,frames\Vid36_BB_T.png,frames\Vid36_L.png,['l'],1,[2.6836988999966707],[None],5,1.1139199000026565,,,,,0,18,18,35,1768.8922411999993,,20,Male,Right handed,Corrected to normal,,,,,,,,,,,,,,,,,,,,,,,,,,,,,,,,,,,,,,,,1768.8731908000009,1768.8922411999993,1768.8922411999993,1768.8922411999993,1768.8922411999993,1768.8922411999993,1768.8922411999993,1771.5783248000007,['l'],1,[2.6836988999966707],[None],1771.5793362000004,1771.591964700001,1771.591964700001,1771.591964700001,1772.7102842999993,5,1.1139199000026565,5,1.1139199000026565,,,,,,sub24_AB,001,2026-01-18_18h04.00.527,recognitionstage,,2025.1.1,60.108507878506394,2026-01-18 18h08.59.640287 +0530,
,,,19,19,0,14,frames\Vid14_BB_T.png,frames\Vid14_L.png,['l'],1,[5.575711900000897],[None],4,1.6144304999979795,,,,,0,19,19,13,1772.7763262000008,,20,Male,Right handed,Corrected to normal,,,,,,,,,,,,,,,,,,,,,,,,,,,,,,,,,,,,,,,,1772.7573630000006,1772.7763262000008,1772.7763262000008,1772.7763262000008,1772.7763262000008,1772.7763262000008,1772.7763262000008,1778.3609849999993,['l'],1,[5.575711900000897],[None],1778.3621854999983,1778.3754588999982,1778.3754588999982,1778.3754588999982,1779.9928618999984,4,1.6144304999979795,4,1.6144304999979795,,,,,,sub24_AB,001,2026-01-18_18h04.00.527,recognitionstage,,2025.1.1,60.108507878506394,2026-01-18 18h08.59.640287 +0530,
,,,20,20,0,15,frames\Vid15_BB_T.png,frames\Vid15_L.png,['l'],1,[5.585471499998675],[None],4,0.5822389000022667,,,,,0,20,20,14,1780.0623842999994,,20,Male,Right handed,Corrected to normal,,,,,,,,,,,,,,,,,,,,,,,,,,,,,,,,,,,,,,,,1780.0395449999996,1780.0623842999994,1780.0623842999994,1780.0623842999994,1780.0623842999994,1780.0623842999994,1780.0623842999994,1785.6603007999984,['l'],1,[5.585471499998675],[None],1785.6611532999996,1785.6761067000007,1785.6761067000007,1785.6761067000007,1786.259377899998,4,0.5822389000022667,4,0.5822389000022667,,,,,,sub24_AB,001,2026-01-18_18h04.00.527,recognitionstage,,2025.1.1,60.108507878506394,2026-01-18 18h08.59.640287 +0530,
,,,21,21,0,16,frames\Vid16_EM_T.png,frames\Vid16_L.png,['l'],1,[6.935534800002642],[None],2,1.631930100000318,,,,,0,21,21,15,1786.3123386000007,,20,Male,Right handed,Corrected to normal,,,,,,,,,,,,,,,,,,,,,,,,,,,,,,,,,,,,,,,,1786.2974576000015,1786.3123386000007,1786.3123386000007,1786.3123386000007,1786.3123386000007,1786.3123386000007,1786.3123386000007,1793.2607831999994,['l'],1,[6.935534800002642],[None],1793.2616391999982,1793.2753980999987,1793.2753980999987,1793.2753980999987,1794.9097395999997,2,1.631930100000318,2,1.631930100000318,,,,,,sub24_AB,001,2026-01-18_18h04.00.527,recognitionstage,,2025.1.1,60.108507878506394,2026-01-18 18h08.59.640287 +0530,
,,,22,22,0,25,frames\Vid25_BB_T.png,frames\Vid25_L.png,['r'],1,[16.615018899999995],[None],4,2.047151400001894,,,,,0,22,22,24,1794.9449835999985,,20,Male,Right handed,Corrected to normal,,,,,,,,,,,,,,,,,,,,,,,,,,,,,,,,,,,,,,,,1794.9218054000012,1794.9449835999985,1794.9449835999985,1794.9449835999985,1794.9449835999985,1794.9449835999985,1794.9449835999985,1811.5614209999985,['r'],1,[16.615018899999995],[None],1811.5625271999997,1811.5755581000012,1811.5755581000012,1811.5755581000012,1813.6268845999984,4,2.047151400001894,4,2.047151400001894,,,,,,sub24_AB,001,2026-01-18_18h04.00.527,recognitionstage,,2025.1.1,60.108507878506394,2026-01-18 18h08.59.640287 +0530,
,,,23,23,0,6,frames\Vid6_BB_T.png,frames\Vid6_L.png,['r'],1,[9.363518199999817],[None],4,1.4477068999985931,,,,,0,23,23,5,1813.6926171000014,,20,Male,Right handed,Corrected to normal,,,,,,,,,,,,,,,,,,,,,,,,,,,,,,,,,,,,,,,,1813.6700500000006,1813.6926171000014,1813.6926171000014,1813.6926171000014,1813.6926171000014,1813.6926171000014,1813.6926171000014,1823.0612465000013,['r'],1,[9.363518199999817],[None],1823.0624458999991,1823.0760182000013,1823.0760182000013,1823.0760182000013,1824.5258415999997,4,1.4477068999985931,4,1.4477068999985931,,,,,,sub24_AB,001,2026-01-18_18h04.00.527,recognitionstage,,2025.1.1,60.108507878506394,2026-01-18 18h08.59.640287 +0530,
,,,24,24,0,35,frames\Vid35_EM_T.png,frames\Vid35_L.png,['r'],1,[9.10050499999852],[None],4,0.7317302000010386,,,,,0,24,24,34,1824.547389200001,,20,Male,Right handed,Corrected to normal,,,,,,,,,,,,,,,,,,,,,,,,,,,,,,,,,,,,,,,,1824.5334680000014,1824.547389200001,1824.547389200001,1824.547389200001,1824.547389200001,1824.547389200001,1824.547389200001,1833.660405300001,['r'],1,[9.10050499999852],[None],1833.6613166999996,1833.6758752999995,1833.6758752999995,1833.6758752999995,1834.4103759999998,4,0.7317302000010386,4,0.7317302000010386,,,,,,sub24_AB,001,2026-01-18_18h04.00.527,recognitionstage,,2025.1.1,60.108507878506394,2026-01-18 18h08.59.640287 +0530,
,,,25,25,0,39,frames\Vid39_BB_T.png,frames\Vid39_L.png,['r'],1,[7.140865399996983],[None],5,0.9145281999990402,,,,,0,25,25,38,1834.427029999999,,20,Male,Right handed,Corrected to normal,,,,,,,,,,,,,,,,,,,,,,,,,,,,,,,,,,,,,,,,1834.419142300001,1834.427029999999,1834.427029999999,1834.427029999999,1834.427029999999,1834.427029999999,1834.427029999999,1841.577623199999,['r'],1,[7.140865399996983],[None],1841.5786163999983,1841.5920522000015,1841.5920522000015,1841.5920522000015,1842.510250700001,5,0.9145281999990402,5,0.9145281999990402,,,,,,sub24_AB,001,2026-01-18_18h04.00.527,recognitionstage,,2025.1.1,60.108507878506394,2026-01-18 18h08.59.640287 +0530,
,,,26,26,0,20,frames\Vid20_EM_T.png,frames\Vid20_L.png,['r'],1,[9.232895600001939],[None],4,1.0148619999999937,,,,,0,26,26,19,1842.5271027999988,,20,Male,Right handed,Corrected to normal,,,,,,,,,,,,,,,,,,,,,,,,,,,,,,,,,,,,,,,,1842.5175181999984,1842.5271027999988,1842.5271027999988,1842.5271027999988,1842.5271027999988,1842.5271027999988,1842.5271027999988,1851.7609730000004,['r'],1,[9.232895600001939],[None],1851.762090600001,1851.7757024999992,1851.7757024999992,1851.7757024999992,1852.7931161000015,4,1.0148619999999937,4,1.0148619999999937,,,,,,sub24_AB,001,2026-01-18_18h04.00.527,recognitionstage,,2025.1.1,60.108507878506394,2026-01-18 18h08.59.640287 +0530,
,,,27,27,0,32,frames\Vid32_EM_T.png,frames\Vid32_L.png,['r'],1,[4.758431099999143],[None],5,1.2484025999983714,,,,,0,27,27,31,1852.8255038999996,,20,Male,Right handed,Corrected to normal,,,,,,,,,,,,,,,,,,,,,,,,,,,,,,,,,,,,,,,,1852.8066345000007,1852.8255038999996,1852.8255038999996,1852.8255038999996,1852.8255038999996,1852.8255038999996,1852.8255038999996,1857.5942020000002,['r'],1,[4.758431099999143],[None],1857.5952432999984,1857.6092801000013,1857.6092801000013,1857.6092801000013,1858.8596212000011,5,1.2484025999983714,5,1.2484025999983714,,,,,,sub24_AB,001,2026-01-18_18h04.00.527,recognitionstage,,2025.1.1,60.108507878506394,2026-01-18 18h08.59.640287 +0530,
,,,28,28,0,12,frames\Vid12_EM_T.png,frames\Vid12_L.png,['l'],1,[10.497658399999636],[None],5,3.499230199999147,,,,,0,28,28,11,1858.9261920999998,,20,Male,Right handed,Corrected to normal,,,,,,,,,,,,,,,,,,,,,,,,,,,,,,,,,,,,,,,,1858.9037860999997,1858.9261920999998,1858.9261920999998,1858.9261920999998,1858.9261920999998,1858.9261920999998,1858.9261920999998,1869.4269915000004,['l'],1,[10.497658399999636],[None],1869.4278454000014,1869.443019899998,1869.443019899998,1869.443019899998,1872.9435645000012,5,3.499230199999147,5,3.499230199999147,,,,,,sub24_AB,001,2026-01-18_18h04.00.527,recognitionstage,,2025.1.1,60.108507878506394,2026-01-18 18h08.59.640287 +0530,
,,,29,29,0,34,frames\Vid34_BB_T.png,frames\Vid34_L.png,['r'],1,[5.149623500001326],[None],5,0.7322289000003366,,,,,0,29,29,33,1872.9784486999997,,20,Male,Right handed,Corrected to normal,,,,,,,,,,,,,,,,,,,,,,,,,,,,,,,,,,,,,,,,1872.9550012,1872.9784486999997,1872.9784486999997,1872.9784486999997,1872.9784486999997,1872.9784486999997,1872.9784486999997,1878.1437968999999,['r'],1,[5.149623500001326],[None],1878.1447856000013,1878.159435999998,1878.159435999998,1878.159435999998,1878.893428700001,5,0.7322289000003366,5,0.7322289000003366,,,,,,sub24_AB,001,2026-01-18_18h04.00.527,recognitionstage,,2025.1.1,60.108507878506394,2026-01-18 18h08.59.640287 +0530,
,,,30,30,0,23,frames\Vid23_EM_T.png,frames\Vid23_L.png,['r'],1,[7.370906399999512],[None],2,1.1805913999996847,,,,,0,30,30,22,1878.9254275999992,,20,Male,Right handed,Corrected to normal,,,,,,,,,,,,,,,,,,,,,,,,,,,,,,,,,,,,,,,,1878.9090861000004,1878.9254275999992,1878.9254275999992,1878.9254275999992,1878.9254275999992,1878.9254275999992,1878.9254275999992,1886.3113400000002,['r'],1,[7.370906399999512],[None],1886.3127176999988,1886.3256761999983,1886.3256761999983,1886.3256761999983,1887.5104465000004,2,1.1805913999996847,2,1.1805913999996847,,,,,,sub24_AB,001,2026-01-18_18h04.00.527,recognitionstage,,2025.1.1,60.108507878506394,2026-01-18 18h08.59.640287 +0530,
,,,31,31,0,4,frames\Vid4_EM_T.png,frames\Vid4_L.png,['r'],1,[9.519379000001209],[None],4,0.6978431999996246,,,,,0,31,31,3,1887.576509999999,,20,Male,Right handed,Corrected to normal,,,,,,,,,,,,,,,,,,,,,,,,,,,,,,,,,,,,,,,,1887.5558248999987,1887.576509999999,1887.576509999999,1887.576509999999,1887.576509999999,1887.576509999999,1887.576509999999,1897.1107951999984,['r'],1,[9.519379000001209],[None],1897.1119989,1897.125667100001,1897.125667100001,1897.125667100001,1897.8268529999987,4,0.6978431999996246,4,0.6978431999996246,,,,,,sub24_AB,001,2026-01-18_18h04.00.527,recognitionstage,,2025.1.1,60.108507878506394,2026-01-18 18h08.59.640287 +0530,
,,,32,32,0,13,frames\Vid13_BB_T.png,frames\Vid13_L.png,['l'],0,[7.824718600000779],[None],2,1.1983013999997638,,,,,0,32,32,12,1897.8792466000014,,20,Male,Right handed,Corrected to normal,,,,,,,,,,,,,,,,,,,,,,,,,,,,,,,,,,,,,,,,1897.859027800001,1897.8792466000014,1897.8792466000014,1897.8792466000014,1897.8792466000014,1897.8792466000014,1897.8792466000014,1905.7104594999983,['l'],0,[7.824718600000779],[None],1905.7115971999992,1905.7259846000015,1905.7259846000015,1905.7259846000015,1906.9272877000003,2,1.1983013999997638,2,1.1983013999997638,,,,,,sub24_AB,001,2026-01-18_18h04.00.527,recognitionstage,,2025.1.1,60.108507878506394,2026-01-18 18h08.59.640287 +0530,
,,,33,33,0,26,frames\Vid26_EM_T.png,frames\Vid26_L.png,['r'],1,[5.806430299999192],[None],5,0.9305998999989242,,,,,0,33,33,25,1906.9615161000002,,20,Male,Right handed,Corrected to normal,,,,,,,,,,,,,,,,,,,,,,,,,,,,,,,,,,,,,,,,1906.942809600001,1906.9615161000002,1906.9615161000002,1906.9615161000002,1906.9615161000002,1906.9615161000002,1906.9615161000002,1912.7784361000013,['r'],1,[5.806430299999192],[None],1912.7794901000016,1912.7920927999985,1912.7920927999985,1912.7920927999985,1913.7261003999993,5,0.9305998999989242,5,0.9305998999989242,,,,,,sub24_AB,001,2026-01-18_18h04.00.527,recognitionstage,,2025.1.1,60.108507878506394,2026-01-18 18h08.59.640287 +0530,
,,,34,34,0,9,frames\Vid9_EM_T.png,frames\Vid9_L.png,['r'],1,[7.695509600001969],[None],5,2.0305307999988145,,,,,0,34,34,8,1913.7766097999993,,20,Male,Right handed,Corrected to normal,,,,,,,,,,,,,,,,,,,,,,,,,,,,,,,,,,,,,,,,1913.7624219999998,1913.7766097999993,1913.7766097999993,1913.7766097999993,1913.7766097999993,1913.7766097999993,1913.7766097999993,1921.4780202000002,['r'],1,[7.695509600001969],[None],1921.479185199998,1921.5073974000006,1921.5073974000006,1921.5073974000006,1923.5271259,5,2.0305307999988145,5,2.0305307999988145,,,,,,sub24_AB,001,2026-01-18_18h04.00.527,recognitionstage,,2025.1.1,60.108507878506394,2026-01-18 18h08.59.640287 +0530,
,,,35,35,0,27,frames\Vid27_BB_T.png,frames\Vid27_L.png,['r'],1,[6.1025293999991845],[None],5,0.6801020000020799,,,,,0,35,35,26,1923.5613989000012,,20,Male,Right handed,Corrected to normal,,,,,,,,,,,,,,,,,,,,,,,,,,,,,,,,,,,,,,,,1923.5369038999997,1923.5613989000012,1923.5613989000012,1923.5613989000012,1923.5613989000012,1923.5613989000012,1923.5613989000012,1929.6785418,['r'],1,[6.1025293999991845],[None],1929.6794921,1929.6924742999981,1929.6924742999981,1929.6924742999981,1930.3764052000006,5,0.6801020000020799,5,0.6801020000020799,,,,,,sub24_AB,001,2026-01-18_18h04.00.527,recognitionstage,,2025.1.1,60.108507878506394,2026-01-18 18h08.59.640287 +0530,
,,,36,36,0,38,frames\Vid38_EM_T.png,frames\Vid38_L.png,['r'],0,[6.342081800001324],[None],5,1.2989987000000838,,,,,0,36,36,37,1930.3939284000007,,20,Male,Right handed,Corrected to normal,,,,,,,,,,,,,,,,,,,,,,,,,,,,,,,,,,,,,,,,1930.3859626999983,1930.3939284000007,1930.3939284000007,1930.3939284000007,1930.3939284000007,1930.3939284000007,1930.3939284000007,1936.744262100001,['r'],0,[6.342081800001324],[None],1936.7450277999997,1936.758635099999,1936.758635099999,1936.758635099999,1938.0595403000007,5,1.2989987000000838,5,1.2989987000000838,,,,,,sub24_AB,001,2026-01-18_18h04.00.527,recognitionstage,,2025.1.1,60.108507878506394,2026-01-18 18h08.59.640287 +0530,
,,,37,37,0,40,frames\Vid40_EM_T.png,frames\Vid40_L.png,['r'],1,[5.042194000001473],[None],5,0.6645606999991287,,,,,0,37,37,39,1938.077785900001,,20,Male,Right handed,Corrected to normal,,,,,,,,,,,,,,,,,,,,,,,,,,,,,,,,,,,,,,,,1938.0676457000009,1938.077785900001,1938.077785900001,1938.077785900001,1938.077785900001,1938.077785900001,1938.077785900001,1943.1277154999989,['r'],1,[5.042194000001473],[None],1943.1288120999998,1943.1425816999981,1943.1425816999981,1943.1425816999981,1943.8097823999997,5,0.6645606999991287,5,0.6645606999991287,,,,,,sub24_AB,001,2026-01-18_18h04.00.527,recognitionstage,,2025.1.1,60.108507878506394,2026-01-18 18h08.59.640287 +0530,
,,,38,38,0,21,frames\Vid21_BB_T.png,frames\Vid21_L.png,['r'],1,[6.9017634999981965],[None],4,1.565477899999678,,,,,0,38,38,20,1943.842106600001,,20,Male,Right handed,Corrected to normal,,,,,,,,,,,,,,,,,,,,,,,,,,,,,,,,,,,,,,,,1943.8238285000007,1943.842106600001,1943.842106600001,1943.842106600001,1943.842106600001,1943.842106600001,1943.842106600001,1950.7608820999994,['r'],1,[6.9017634999981965],[None],1950.7617648000014,1950.7760619,1950.7760619,1950.7760619,1952.3424235999992,4,1.565477899999678,4,1.565477899999678,,,,,,sub24_AB,001,2026-01-18_18h04.00.527,recognitionstage,,2025.1.1,60.108507878506394,2026-01-18 18h08.59.640287 +0530,
,,,39,39,0,11,frames\Vid11_EM_T.png,frames\Vid11_L.png,['r'],1,[5.895007499999338],[None],5,0.8635567999990599,,,,,0,39,39,10,1952.3931964000003,,20,Male,Right handed,Corrected to normal,,,,,,,,,,,,,,,,,,,,,,,,,,,,,,,,,,,,,,,,1952.3846402999989,1952.3931964000003,1952.3931964000003,1952.3931964000003,1952.3931964000003,1952.3931964000003,1952.3931964000003,1958.2951920000014,['r'],1,[5.895007499999338],[None],1958.2966406999985,1958.3090392999984,1958.3090392999984,1958.3090392999984,1959.1763662000012,5,0.8635567999990599,5,0.8635567999990599,,,,,,sub24_AB,001,2026-01-18_18h04.00.527,recognitionstage,,2025.1.1,60.108507878506394,2026-01-18 18h08.59.640287 +0530,
,,,,,,,,,,,,,,,,,,,,,,,,,20,Male,Right handed,Corrected to normal,,,,,,,,,,,,,,,,,,,,,,,,,,,,,,,,,,,,,,,,,,,,,,,,,,,,,,,,,,,,,1959.1764595999994,1959.1925157000005,1959.1925157000005,1979.1781559999981,None,sub24_AB,001,2026-01-18_18h04.00.527,recognitionstage,,2025.1.1,60.108507878506394,2026-01-18 18h08.59.640287 +0530,
