path,duration,is_repeat,thisN,thisTrialN,thisRepN,movie_id,target_img,lure_img,resp.keys,resp.corr,resp.rt,resp.duration,conf_radio.response,conf_radio.rt,movie.thisRepN,movie.thisTrialN,movie.thisN,movie.thisIndex,recogloop.thisRepN,recogloop.thisTrialN,recogloop.thisN,recogloop.thisIndex,thisRow.t,notes,age,gender,handedness,vision,caffeine_2h,alcohol_smoke_12h,demographics.started,demographics.stopped,Instructions.started,text1.started,key_resp.started,Instructions.stopped,key_resp.keys,key_resp.rt,key_resp.duration,instruction_2.started,text2.started,key_resp_2.started,instruction_2.stopped,key_resp_2.keys,key_resp_2.rt,key_resp_2.duration,Videos.started,movie_2.started,vigilance_resp.started,movie_2.stopped,Videos.stopped,movie.vigilance_resp.keys,vigilance_pressed,vigilance_correct,ISI.started,text.started,ISI.stopped,text.stopped,movie.vigilance_resp.rt,movie.vigilance_resp.duration,recognition.started,text_4.started,key_resp_3.started,recognition.stopped,key_resp_3.keys,key_resp_3.rt,key_resp_3.duration,recognition_task.started,leftimage.started,rightimage.started,resp.started,frames_question.started,right_label.started,left_label.started,recognition_task.stopped,recogloop.resp.keys,recogloop.resp.corr,recogloop.resp.rt,recogloop.resp.duration,confidence.started,conf_text.started,conf_radio.started,conf_label.started,confidence.stopped,recogloop.conf_radio.response,recogloop.conf_radio.rt,confidence,confidence_rt,thank_you.started,text_6.started,key_resp_4.started,thank_you.stopped,key_resp_4.keys,key_resp_4.rt,key_resp_4.duration,participant,session,date,expName,expVersion,psychopyVersion,frameRate,expStart,...105
,,,,,,,,,,,,,,,,,,,,,,,,,23,Female,Right handed,Normal,Caffeine consumed in last 2 hours?,Alcohol or smoking in last 12 hours?,0.005778899998404086,0.008224900000641355,,,,,,,,,,,,,,,,,,,,,,,,,,,,,,,,,,,,,,,,,,,,,,,,,,,,,,,,,,,,,,,,sub25_AB,001,2026-01-18_18h44.26.859,recognitionstage,,2025.1.1,59.95958723848053,2026-01-18 18h45.51.524715 +0530,
,,,,,,,,,,,,,,,,,,,,,,,,,23,Female,Right handed,Normal,,,,,0.00824799999827519,0.024677199999132426,0.024677199999132426,13.393415599999571,space,13.36273810000057,None,,,,,,,,,,,,,,,,,,,,,,,,,,,,,,,,,,,,,,,,,,,,,,,,,,,,,,,,,sub25_AB,001,2026-01-18_18h44.26.859,recognitionstage,,2025.1.1,59.95958723848053,2026-01-18 18h45.51.524715 +0530,
,,,,,,,,,,,,,,,,,,,,,,,,,23,Female,Right handed,Normal,,,,,,,,,,,,13.39346569999907,13.408984900001087,13.408984900001087,29.009518800001388,space,15.586207000000286,None,,,,,,,,,,,,,,,,,,,,,,,,,,,,,,,,,,,,,,,,,,,,,,,,,,sub25_AB,001,2026-01-18_18h44.26.859,recognitionstage,,2025.1.1,59.95958723848053,2026-01-18 18h45.51.524715 +0530,
abrupt_videos\abrupt_11.mp4,29,0,44,44,0,,,,,,,,,,0,44,44,12,,,,,1521.1573777000012,,23,Female,Right handed,Normal,,,,,,,,,,,,,,,,,,,1521.1132155999985,1521.1573777000012,1521.1573777000012,1550.4902159000012,1550.3483942999992,None,0,1,1550.4844000000012,1550.4902159000012,1552.9764388000003,1552.9923882000003,3.5926591999996162,None,1552.976524499998,1552.9923882000003,1552.9923882000003,1583.2439134999986,space,30.243206200000714,None,,,,,,,,,,,,,,,,,,,,,,,,,,,,,sub25_AB,001,2026-01-18_18h44.26.859,recognitionstage,,2025.1.1,59.95958723848053,2026-01-18 18h45.51.524715 +0530,
,,,0,0,0,27,frames\Vid27_BB_T.png,frames\Vid27_L.png,['l'],1,[7.51456799999869],[None],5,8.579723099999683,,,,,0,0,0,26,1583.2729843999987,,23,Female,Right handed,Normal,,,,,,,,,,,,,,,,,,,,,,,,,,,,,,,,,,,,,,,,1583.263242500001,1583.2729843999987,1583.2729843999987,1583.2729843999987,1583.2729843999987,1583.2729843999987,1583.2729843999987,1590.7947185000012,['l'],1,[7.51456799999869],[None],1590.7959699999992,1590.8225518,1590.8225518,1590.8225518,1599.3921278999987,5,8.579723099999683,5,8.579723099999683,,,,,,,,sub25_AB,001,2026-01-18_18h44.26.859,recognitionstage,,2025.1.1,59.95958723848053,2026-01-18 18h45.51.524715 +0530,
,,,1,1,0,10,frames\Vid10_BB_T.png,frames\Vid10_L.png,['l'],1,[4.234454700002971],[None],3,3.3663835000006657,,,,,0,1,1,9,1599.4570590000003,,23,Female,Right handed,Normal,,,,,,,,,,,,,,,,,,,,,,,,,,,,,,,,,,,,,,,,1599.4400720999984,1599.4570590000003,1599.4570590000003,1599.4570590000003,1599.4570590000003,1599.4570590000003,1599.4570590000003,1603.692186100001,['l'],1,[4.234454700002971],[None],1603.6929052000014,1603.7093375000004,1603.7093375000004,1603.7093375000004,1607.0752470000007,3,3.3663835000006657,3,3.3663835000006657,,,,,,,,sub25_AB,001,2026-01-18_18h44.26.859,recognitionstage,,2025.1.1,59.95958723848053,2026-01-18 18h45.51.524715 +0530,
,,,2,2,0,3,frames\Vid3_BB_T.png,frames\Vid3_L.png,['r'],1,[4.142452400003094],[None],4,2.113913199998933,,,,,0,2,2,2,1607.1568528999996,,23,Female,Right handed,Normal,,,,,,,,,,,,,,,,,,,,,,,,,,,,,,,,,,,,,,,,1607.1355216999982,1607.1568528999996,1607.1568528999996,1607.1568528999996,1607.1568528999996,1607.1568528999996,1607.1568528999996,1611.3100798999985,['r'],1,[4.142452400003094],[None],1611.3112645,1611.3239907999996,1611.3239907999996,1611.3239907999996,1613.4421709999988,4,2.113913199998933,4,2.113913199998933,,,,,,,,sub25_AB,001,2026-01-18_18h44.26.859,recognitionstage,,2025.1.1,59.95958723848053,2026-01-18 18h45.51.524715 +0530,
,,,3,3,0,4,frames\Vid4_EM_T.png,frames\Vid4_L.png,['l'],1,[10.340781499999139],[None],2,2.745369899999787,,,,,0,3,3,3,1613.5107124999995,,23,Female,Right handed,Normal,,,,,,,,,,,,,,,,,,,,,,,,,,,,,,,,,,,,,,,,1613.488129199999,1613.5107124999995,1613.5107124999995,1613.5107124999995,1613.5107124999995,1613.5107124999995,1613.5107124999995,1623.861963700001,['l'],1,[10.340781499999139],[None],1623.8632317999982,1623.8739251000006,1623.8739251000006,1623.8739251000006,1626.6258377000013,2,2.745369899999787,2,2.745369899999787,,,,,,,,sub25_AB,001,2026-01-18_18h44.26.859,recognitionstage,,2025.1.1,59.95958723848053,2026-01-18 18h45.51.524715 +0530,
,,,4,4,0,38,frames\Vid38_EM_T.png,frames\Vid38_L.png,['r'],1,[6.614646499998344],[None],2,1.8140776000000187,,,,,0,4,4,37,1626.6607111999983,,23,Female,Right handed,Normal,,,,,,,,,,,,,,,,,,,,,,,,,,,,,,,,,,,,,,,,1626.6369321999991,1626.6607111999983,1626.6607111999983,1626.6607111999983,1626.6607111999983,1626.6607111999983,1626.6607111999983,1633.2770225999993,['r'],1,[6.614646499998344],[None],1633.2779074999999,1633.2907197999994,1633.2907197999994,1633.2907197999994,1635.1086483,2,1.8140776000000187,2,1.8140776000000187,,,,,,,,sub25_AB,001,2026-01-18_18h44.26.859,recognitionstage,,2025.1.1,59.95958723848053,2026-01-18 18h45.51.524715 +0530,
,,,5,5,0,21,frames\Vid21_BB_T.png,frames\Vid21_L.png,['r'],1,[5.126319000002695],[None],5,2.2969025999991572,,,,,0,5,5,20,1635.141214299998,,23,Female,Right handed,Normal,,,,,,,,,,,,,,,,,,,,,,,,,,,,,,,,,,,,,,,,1635.1205207999992,1635.141214299998,1635.141214299998,1635.141214299998,1635.141214299998,1635.141214299998,1635.141214299998,1640.2780309000009,['r'],1,[5.126319000002695],[None],1640.2787075999986,1640.2945732999979,1640.2945732999979,1640.2945732999979,1642.592014400001,5,2.2969025999991572,5,2.2969025999991572,,,,,,,,sub25_AB,001,2026-01-18_18h44.26.859,recognitionstage,,2025.1.1,59.95958723848053,2026-01-18 18h45.51.524715 +0530,
,,,6,6,0,24,frames\Vid24_BB_T.png,frames\Vid24_L.png,['l'],1,[6.619347899999411],[None],3,3.3826119000004837,,,,,0,6,6,23,1642.6244168999983,,23,Female,Right handed,Normal,,,,,,,,,,,,,,,,,,,,,,,,,,,,,,,,,,,,,,,,1642.6064588000008,1642.6244168999983,1642.6244168999983,1642.6244168999983,1642.6244168999983,1642.6244168999983,1642.6244168999983,1649.2595048000003,['l'],1,[6.619347899999411],[None],1649.2605054999985,1649.274519399998,1649.274519399998,1649.274519399998,1652.6582344999988,3,3.3826119000004837,3,3.3826119000004837,,,,,,,,sub25_AB,001,2026-01-18_18h44.26.859,recognitionstage,,2025.1.1,59.95958723848053,2026-01-18 18h45.51.524715 +0530,
,,,7,7,0,33,frames\Vid33_BB_T.png,frames\Vid33_L.png,['r'],1,[3.974912999998196],[None],4,1.714736099998845,,,,,0,7,7,32,1652.6765363999984,,23,Female,Right handed,Normal,,,,,,,,,,,,,,,,,,,,,,,,,,,,,,,,,,,,,,,,1652.6672599000012,1652.6765363999984,1652.6765363999984,1652.6765363999984,1652.6765363999984,1652.6765363999984,1652.6765363999984,1656.6600149000005,['r'],1,[3.974912999998196],[None],1656.6611783000008,1656.6744647999985,1656.6744647999985,1656.6744647999985,1658.3918802999979,4,1.714736099998845,4,1.714736099998845,,,,,,,,sub25_AB,001,2026-01-18_18h44.26.859,recognitionstage,,2025.1.1,59.95958723848053,2026-01-18 18h45.51.524715 +0530,
,,,8,8,0,19,frames\Vid19_BB_T.png,frames\Vid19_L.png,['r'],1,[4.707245300000068],[None],1,2.214497199998732,,,,,0,8,8,18,1658.4241731000002,,23,Female,Right handed,Normal,,,,,,,,,,,,,,,,,,,,,,,,,,,,,,,,,,,,,,,,1658.403646499999,1658.4241731000002,1658.4241731000002,1658.4241731000002,1658.4241731000002,1658.4241731000002,1658.4241731000002,1663.1432161000012,['r'],1,[4.707245300000068],[None],1663.144178300001,1663.1574637000012,1663.1574637000012,1663.1574637000012,1665.3751661999995,1,2.214497199998732,1,2.214497199998732,,,,,,,,sub25_AB,001,2026-01-18_18h44.26.859,recognitionstage,,2025.1.1,59.95958723848053,2026-01-18 18h45.51.524715 +0530,
,,,9,9,0,7,frames\Vid7_EM_T.png,frames\Vid7_L.png,['r'],1,[5.425852099997428],[None],2,2.665017600000283,,,,,0,9,9,6,1665.4415704999992,,23,Female,Right handed,Normal,,,,,,,,,,,,,,,,,,,,,,,,,,,,,,,,,,,,,,,,1665.4293628000014,1665.4415704999992,1665.4415704999992,1665.4415704999992,1665.4415704999992,1665.4415704999992,1665.4415704999992,1670.876430299999,['r'],1,[5.425852099997428],[None],1670.8773705999993,1670.8911883,1670.8911883,1670.8911883,1673.5588510999987,2,2.665017600000283,2,2.665017600000283,,,,,,,,sub25_AB,001,2026-01-18_18h44.26.859,recognitionstage,,2025.1.1,59.95958723848053,2026-01-18 18h45.51.524715 +0530,
,,,10,10,0,23,frames\Vid23_EM_T.png,frames\Vid23_L.png,['l'],1,[2.713705799997115],[None],4,1.4646830999990925,,,,,0,10,10,22,1673.5936541999981,,23,Female,Right handed,Normal,,,,,,,,,,,,,,,,,,,,,,,,,,,,,,,,,,,,,,,,1673.5750200000002,1673.5936541999981,1673.5936541999981,1673.5936541999981,1673.5936541999981,1673.5936541999981,1673.5936541999981,1676.3104459999995,['l'],1,[2.713705799997115],[None],1676.3115704999982,1676.339527199998,1676.339527199998,1676.339527199998,1677.7922517000006,4,1.4646830999990925,4,1.4646830999990925,,,,,,,,sub25_AB,001,2026-01-18_18h44.26.859,recognitionstage,,2025.1.1,59.95958723848053,2026-01-18 18h45.51.524715 +0530,
,,,11,11,0,13,frames\Vid13_BB_T.png,frames\Vid13_L.png,['r'],0,[3.8894098000018857],[None],2,1.4487692000002426,,,,,0,11,11,12,1677.8418788999988,,23,Female,Right handed,Normal,,,,,,,,,,,,,,,,,,,,,,,,,,,,,,,,,,,,,,,,1677.8284712999994,1677.8418788999988,1677.8418788999988,1677.8418788999988,1677.8418788999988,1677.8418788999988,1677.8418788999988,1681.7422650000008,['r'],0,[3.8894098000018857],[None],1681.7433856999996,1681.7578811999992,1681.7578811999992,1681.7578811999992,1683.209181899998,2,1.4487692000002426,2,1.4487692000002426,,,,,,,,sub25_AB,001,2026-01-18_18h44.26.859,recognitionstage,,2025.1.1,59.95958723848053,2026-01-18 18h45.51.524715 +0530,
,,,12,12,0,26,frames\Vid26_EM_T.png,frames\Vid26_L.png,['l'],1,[2.8477558000013232],[None],2,1.4303930999994918,,,,,0,12,12,25,1683.2436186000014,,23,Female,Right handed,Normal,,,,,,,,,,,,,,,,,,,,,,,,,,,,,,,,,,,,,,,,1683.231033,1683.2436186000014,1683.2436186000014,1683.2436186000014,1683.2436186000014,1683.2436186000014,1683.2436186000014,1686.0932403000006,['l'],1,[2.8477558000013232],[None],1686.095179699998,1686.1077033000001,1686.1077033000001,1686.1077033000001,1687.542148299999,2,1.4303930999994918,2,1.4303930999994918,,,,,,,,sub25_AB,001,2026-01-18_18h44.26.859,recognitionstage,,2025.1.1,59.95958723848053,2026-01-18 18h45.51.524715 +0530,
,,,13,13,0,6,frames\Vid6_BB_T.png,frames\Vid6_L.png,['r'],1,[3.0586605000025884],[None],1,4.264929899996787,,,,,0,13,13,5,1687.608671599999,,23,Female,Right handed,Normal,,,,,,,,,,,,,,,,,,,,,,,,,,,,,,,,,,,,,,,,1687.5879657000005,1687.608671599999,1687.608671599999,1687.608671599999,1687.608671599999,1687.608671599999,1687.608671599999,1690.6761136999994,['r'],1,[3.0586605000025884],[None],1690.6769750999993,1690.6912567,1690.6912567,1690.6912567,1694.9586796000003,1,4.264929899996787,1,4.264929899996787,,,,,,,,sub25_AB,001,2026-01-18_18h44.26.859,recognitionstage,,2025.1.1,59.95958723848053,2026-01-18 18h45.51.524715 +0530,
,,,14,14,0,34,frames\Vid34_BB_T.png,frames\Vid34_L.png,['l'],1,[6.64944149999792],[None],2,1.9322747999976855,,,,,0,14,14,33,1694.9941026999986,,23,Female,Right handed,Normal,,,,,,,,,,,,,,,,,,,,,,,,,,,,,,,,,,,,,,,,1694.9711714000005,1694.9941026999986,1694.9941026999986,1694.9941026999986,1694.9941026999986,1694.9941026999986,1694.9941026999986,1701.6596250000002,['l'],1,[6.64944149999792],[None],1701.660598999999,1701.6746281000014,1701.6746281000014,1701.6746281000014,1703.6091030999996,2,1.9322747999976855,2,1.9322747999976855,,,,,,,,sub25_AB,001,2026-01-18_18h44.26.859,recognitionstage,,2025.1.1,59.95958723848053,2026-01-18 18h45.51.524715 +0530,
,,,15,15,0,11,frames\Vid11_EM_T.png,frames\Vid11_L.png,['l'],1,[3.120423899999878],[None],4,2.549670699998387,,,,,0,15,15,10,1703.6749801000005,,23,Female,Right handed,Normal,,,,,,,,,,,,,,,,,,,,,,,,,,,,,,,,,,,,,,,,1703.6533151000003,1703.6749801000005,1703.6749801000005,1703.6749801000005,1703.6749801000005,1703.6749801000005,1703.6749801000005,1706.8096116999986,['l'],1,[3.120423899999878],[None],1706.8105948999983,1706.8246774,1706.8246774,1706.8246774,1709.3753986999982,4,2.549670699998387,4,2.549670699998387,,,,,,,,sub25_AB,001,2026-01-18_18h44.26.859,recognitionstage,,2025.1.1,59.95958723848053,2026-01-18 18h45.51.524715 +0530,
,,,16,16,0,2,frames\Vid2_BB_T.png,frames\Vid2_L.png,['l'],1,[5.7832336999999825],[None],2,1.0649214000004577,,,,,0,16,16,1,1709.4442643000002,,23,Female,Right handed,Normal,,,,,,,,,,,,,,,,,,,,,,,,,,,,,,,,,,,,,,,,1709.4200463999987,1709.4442643000002,1709.4442643000002,1709.4442643000002,1709.4442643000002,1709.4442643000002,1709.4442643000002,1715.2431825999993,['l'],1,[5.7832336999999825],[None],1715.2441432000014,1715.2580300000009,1715.2580300000009,1715.2580300000009,1716.3257892000001,2,1.0649214000004577,2,1.0649214000004577,,,,,,,,sub25_AB,001,2026-01-18_18h44.26.859,recognitionstage,,2025.1.1,59.95958723848053,2026-01-18 18h45.51.524715 +0530,
,,,17,17,0,32,frames\Vid32_EM_T.png,frames\Vid32_L.png,['l'],1,[2.4828426000021864],[None],5,1.3283063999988372,,,,,0,17,17,31,1716.3608146000006,,23,Female,Right handed,Normal,,,,,,,,,,,,,,,,,,,,,,,,,,,,,,,,,,,,,,,,1716.3381249999984,1716.3608146000006,1716.3608146000006,1716.3608146000006,1716.3608146000006,1716.3608146000006,1716.3608146000006,1718.845237999998,['l'],1,[2.4828426000021864],[None],1718.8467592999987,1718.8725543,1718.8725543,1718.8725543,1720.1917877000014,5,1.3283063999988372,5,1.3283063999988372,,,,,,,,sub25_AB,001,2026-01-18_18h44.26.859,recognitionstage,,2025.1.1,59.95958723848053,2026-01-18 18h45.51.524715 +0530,
,,,18,18,0,8,frames\Vid8_BB_T.png,frames\Vid8_L.png,['l'],0,[7.8488336999980675],[None],3,1.0647426000032283,,,,,0,18,18,7,1720.2585580999985,,23,Female,Right handed,Normal,,,,,,,,,,,,,,,,,,,,,,,,,,,,,,,,,,,,,,,,1720.2349830999992,1720.2585580999985,1720.2585580999985,1720.2585580999985,1720.2585580999985,1720.2585580999985,1720.2585580999985,1728.1099084999987,['l'],0,[7.8488336999980675],[None],1728.1107979000008,1728.1239672999982,1728.1239672999982,1728.1239672999982,1729.1918020999983,3,1.0647426000032283,3,1.0647426000032283,,,,,,,,sub25_AB,001,2026-01-18_18h44.26.859,recognitionstage,,2025.1.1,59.95958723848053,2026-01-18 18h45.51.524715 +0530,
,,,19,19,0,37,frames\Vid37_BB_T.png,frames\Vid37_L.png,['l'],1,[4.112172500001179],[None],3,0.9816380000011122,,,,,0,19,19,36,1729.2271954999997,,23,Female,Right handed,Normal,,,,,,,,,,,,,,,,,,,,,,,,,,,,,,,,,,,,,,,,1729.2056147000003,1729.2271954999997,1729.2271954999997,1729.2271954999997,1729.2271954999997,1729.2271954999997,1729.2271954999997,1733.342835200001,['l'],1,[4.112172500001179],[None],1733.343668999998,1733.3575696000007,1733.3575696000007,1733.3575696000007,1734.3424728999998,3,0.9816380000011122,3,0.9816380000011122,,,,,,,,sub25_AB,001,2026-01-18_18h44.26.859,recognitionstage,,2025.1.1,59.95958723848053,2026-01-18 18h45.51.524715 +0530,
,,,20,20,0,16,frames\Vid16_EM_T.png,frames\Vid16_L.png,['r'],0,[4.6352764000002935],[None],1,1.7137686999994912,,,,,0,20,20,15,1734.3919935000013,,23,Female,Right handed,Normal,,,,,,,,,,,,,,,,,,,,,,,,,,,,,,,,,,,,,,,,1734.3831475000006,1734.3919935000013,1734.3919935000013,1734.3919935000013,1734.3919935000013,1734.3919935000013,1734.3919935000013,1739.0433736000014,['r'],0,[4.6352764000002935],[None],1739.0446319000002,1739.0574758000002,1739.0574758000002,1739.0574758000002,1740.7758613000005,1,1.7137686999994912,1,1.7137686999994912,,,,,,,,sub25_AB,001,2026-01-18_18h44.26.859,recognitionstage,,2025.1.1,59.95958723848053,2026-01-18 18h45.51.524715 +0530,
,,,21,21,0,9,frames\Vid9_EM_T.png,frames\Vid9_L.png,['r'],1,[3.8472773999965284],[None],4,1.2486821000020427,,,,,0,21,21,8,1740.8280502999987,,23,Female,Right handed,Normal,,,,,,,,,,,,,,,,,,,,,,,,,,,,,,,,,,,,,,,,1740.814263100001,1740.8280502999987,1740.8280502999987,1740.8280502999987,1740.8280502999987,1740.8280502999987,1740.8280502999987,1744.6761299999998,['r'],1,[3.8472773999965284],[None],1744.6768309,1744.6907696999988,1744.6907696999988,1744.6907696999988,1745.942628599998,4,1.2486821000020427,4,1.2486821000020427,,,,,,,,sub25_AB,001,2026-01-18_18h44.26.859,recognitionstage,,2025.1.1,59.95958723848053,2026-01-18 18h45.51.524715 +0530,
,,,22,22,0,12,frames\Vid12_EM_T.png,frames\Vid12_L.png,['l'],1,[3.904394400000456],[None],3,0.6653525000001537,,,,,0,22,22,11,1746.0110131000001,,23,Female,Right handed,Normal,,,,,,,,,,,,,,,,,,,,,,,,,,,,,,,,,,,,,,,,1745.9893353000007,1746.0110131000001,1746.0110131000001,1746.0110131000001,1746.0110131000001,1746.0110131000001,1746.0110131000001,1749.9261786999996,['l'],1,[3.904394400000456],[None],1749.9270662999988,1749.9407145000005,1749.9407145000005,1749.9407145000005,1750.6087770999984,3,0.6653525000001537,3,0.6653525000001537,,,,,,,,sub25_AB,001,2026-01-18_18h44.26.859,recognitionstage,,2025.1.1,59.95958723848053,2026-01-18 18h45.51.524715 +0530,
,,,23,23,0,36,frames\Vid36_BB_T.png,frames\Vid36_L.png,['l'],1,[5.623363000002428],[None],1,1.3983799000016006,,,,,0,23,23,35,1750.6441502999987,,23,Female,Right handed,Normal,,,,,,,,,,,,,,,,,,,,,,,,,,,,,,,,,,,,,,,,1750.6212678999982,1750.6441502999987,1750.6441502999987,1750.6441502999987,1750.6441502999987,1750.6441502999987,1750.6441502999987,1756.2760667000002,['l'],1,[5.623363000002428],[None],1756.2769191000007,1756.2911959999983,1756.2911959999983,1756.2911959999983,1757.6924667999992,1,1.3983799000016006,1,1.3983799000016006,,,,,,,,sub25_AB,001,2026-01-18_18h44.26.859,recognitionstage,,2025.1.1,59.95958723848053,2026-01-18 18h45.51.524715 +0530,
,,,24,24,0,18,frames\Vid18_EM_T.png,frames\Vid18_L.png,['l'],1,[3.438846900000499],[None],3,1.114392499999667,,,,,0,24,24,17,1757.7246014000011,,23,Female,Right handed,Normal,,,,,,,,,,,,,,,,,,,,,,,,,,,,,,,,,,,,,,,,1757.7047179,1757.7246014000011,1757.7246014000011,1757.7246014000011,1757.7246014000011,1757.7246014000011,1757.7246014000011,1761.1769648000009,['l'],1,[3.438846900000499],[None],1761.1780212000012,1761.1909601000007,1761.1909601000007,1761.1909601000007,1762.3090066000004,3,1.114392499999667,3,1.114392499999667,,,,,,,,sub25_AB,001,2026-01-18_18h44.26.859,recognitionstage,,2025.1.1,59.95958723848053,2026-01-18 18h45.51.524715 +0530,
,,,25,25,0,28,frames\Vid28_EM_T.png,frames\Vid28_L.png,['l'],1,[2.1734273999973084],[None],5,1.332588900000701,,,,,0,25,25,27,1762.325995700001,,23,Female,Right handed,Normal,,,,,,,,,,,,,,,,,,,,,,,,,,,,,,,,,,,,,,,,1762.3185774000012,1762.325995700001,1762.325995700001,1762.325995700001,1762.325995700001,1762.325995700001,1762.325995700001,1764.5097725000014,['l'],1,[2.1734273999973084],[None],1764.5106181999981,1764.5243413999997,1764.5243413999997,1764.5243413999997,1765.8581898000011,5,1.332588900000701,5,1.332588900000701,,,,,,,,sub25_AB,001,2026-01-18_18h44.26.859,recognitionstage,,2025.1.1,59.95958723848053,2026-01-18 18h45.51.524715 +0530,
,,,26,26,0,25,frames\Vid25_BB_T.png,frames\Vid25_L.png,['l'],1,[8.279096399997798],[None],3,1.197978799998964,,,,,0,26,26,24,1765.8763996999987,,23,Female,Right handed,Normal,,,,,,,,,,,,,,,,,,,,,,,,,,,,,,,,,,,,,,,,1765.8682470999993,1765.8763996999987,1765.8763996999987,1765.8763996999987,1765.8763996999987,1765.8763996999987,1765.8763996999987,1774.1596969999991,['l'],1,[8.279096399997798],[None],1774.160637699999,1774.1747940999994,1774.1747940999994,1774.1747940999994,1775.375293699999,3,1.197978799998964,3,1.197978799998964,,,,,,,,sub25_AB,001,2026-01-18_18h44.26.859,recognitionstage,,2025.1.1,59.95958723848053,2026-01-18 18h45.51.524715 +0530,
,,,27,27,0,30,frames\Vid30_EM_T.png,frames\Vid30_L.png,['l'],1,[4.314733699997305],[None],2,1.0482286000005843,,,,,0,27,27,29,1775.3925668999982,,23,Female,Right handed,Normal,,,,,,,,,,,,,,,,,,,,,,,,,,,,,,,,,,,,,,,,1775.383969300001,1775.3925668999982,1775.3925668999982,1775.3925668999982,1775.3925668999982,1775.3925668999982,1775.3925668999982,1779.7096606000014,['l'],1,[4.314733699997305],[None],1779.7104808000004,1779.7243913999991,1779.7243913999991,1779.7243913999991,1780.7755102999981,2,1.0482286000005843,2,1.0482286000005843,,,,,,,,sub25_AB,001,2026-01-18_18h44.26.859,recognitionstage,,2025.1.1,59.95958723848053,2026-01-18 18h45.51.524715 +0530,
,,,28,28,0,15,frames\Vid15_BB_T.png,frames\Vid15_L.png,['r'],1,[4.697841499997594],[None],2,1.5640524000009464,,,,,0,28,28,14,1780.8417588999982,,23,Female,Right handed,Normal,,,,,,,,,,,,,,,,,,,,,,,,,,,,,,,,,,,,,,,,1780.8251867,1780.8417588999982,1780.8417588999982,1780.8417588999982,1780.8417588999982,1780.8417588999982,1780.8417588999982,1785.5435283000006,['r'],1,[4.697841499997594],[None],1785.544728599998,1785.5580163000013,1785.5580163000013,1785.5580163000013,1787.1249858999981,2,1.5640524000009464,2,1.5640524000009464,,,,,,,,sub25_AB,001,2026-01-18_18h44.26.859,recognitionstage,,2025.1.1,59.95958723848053,2026-01-18 18h45.51.524715 +0530,
,,,29,29,0,35,frames\Vid35_EM_T.png,frames\Vid35_L.png,['l'],1,[3.9539411999976437],[None],1,1.1156362000001536,,,,,0,29,29,34,1787.1454046,,23,Female,Right handed,Normal,,,,,,,,,,,,,,,,,,,,,,,,,,,,,,,,,,,,,,,,1787.1343481000004,1787.1454046,1787.1454046,1787.1454046,1787.1454046,1787.1454046,1787.1454046,1791.1098222,['l'],1,[3.9539411999976437],[None],1791.1108490000006,1791.1244350999987,1791.1244350999987,1791.1244350999987,1792.2412455000012,1,1.1156362000001536,1,1.1156362000001536,,,,,,,,sub25_AB,001,2026-01-18_18h44.26.859,recognitionstage,,2025.1.1,59.95958723848053,2026-01-18 18h45.51.524715 +0530,
,,,30,30,0,1,frames\Vid1_EM_T.png,frames\Vid1_L.png,['r'],1,[4.0951679999998305],[None],5,1.298407700000098,,,,,0,30,30,0,1792.3082738999983,,23,Female,Right handed,Normal,,,,,,,,,,,,,,,,,,,,,,,,,,,,,,,,,,,,,,,,1792.2912419999993,1792.3082738999983,1792.3082738999983,1792.3082738999983,1792.3082738999983,1792.3082738999983,1792.3082738999983,1796.4091765000012,['r'],1,[4.0951679999998305],[None],1796.4099425999993,1796.4247876000009,1796.4247876000009,1796.4247876000009,1797.7259718999994,5,1.298407700000098,5,1.298407700000098,,,,,,,,sub25_AB,001,2026-01-18_18h44.26.859,recognitionstage,,2025.1.1,59.95958723848053,2026-01-18 18h45.51.524715 +0530,
,,,31,31,0,29,frames\Vid29_BB_T.png,frames\Vid29_L.png,['l'],1,[4.570596699999442],[None],2,1.215155699999741,,,,,0,31,31,28,1797.7607329999992,,23,Female,Right handed,Normal,,,,,,,,,,,,,,,,,,,,,,,,,,,,,,,,,,,,,,,,1797.7394937999998,1797.7607329999992,1797.7607329999992,1797.7607329999992,1797.7607329999992,1797.7607329999992,1797.7607329999992,1802.3429853999987,['l'],1,[4.570596699999442],[None],1802.3438122000007,1802.3575056000009,1802.3575056000009,1802.3575056000009,1803.5750324,2,1.215155699999741,2,1.215155699999741,,,,,,,,sub25_AB,001,2026-01-18_18h44.26.859,recognitionstage,,2025.1.1,59.95958723848053,2026-01-18 18h45.51.524715 +0530,
,,,32,32,0,31,frames\Vid31_EM_T.png,frames\Vid31_L.png,['r'],1,[2.0668022999998357],[None],4,1.481449099999736,,,,,0,32,32,30,1803.5927733999997,,23,Female,Right handed,Normal,,,,,,,,,,,,,,,,,,,,,,,,,,,,,,,,,,,,,,,,1803.5828293999984,1803.5927733999997,1803.5927733999997,1803.5927733999997,1803.5927733999997,1803.5927733999997,1803.5927733999997,1805.6770986999982,['r'],1,[2.0668022999998357],[None],1805.678240199999,1805.7064049,1805.7064049,1805.7064049,1807.174955399998,4,1.481449099999736,4,1.481449099999736,,,,,,,,sub25_AB,001,2026-01-18_18h44.26.859,recognitionstage,,2025.1.1,59.95958723848053,2026-01-18 18h45.51.524715 +0530,
,,,33,33,0,40,frames\Vid40_EM_T.png,frames\Vid40_L.png,['l'],1,[2.410942900001828],[None],4,1.0981308000009449,,,,,0,33,33,39,1807.1928259999986,,23,Female,Right handed,Normal,,,,,,,,,,,,,,,,,,,,,,,,,,,,,,,,,,,,,,,,1807.184483699999,1807.1928259999986,1807.1928259999986,1807.1928259999986,1807.1928259999986,1807.1928259999986,1807.1928259999986,1809.610025599999,['l'],1,[2.410942900001828],[None],1809.6107994999984,1809.6244413999993,1809.6244413999993,1809.6244413999993,1810.725877500001,4,1.0981308000009449,4,1.0981308000009449,,,,,,,,sub25_AB,001,2026-01-18_18h44.26.859,recognitionstage,,2025.1.1,59.95958723848053,2026-01-18 18h45.51.524715 +0530,
,,,34,34,0,39,frames\Vid39_BB_T.png,frames\Vid39_L.png,['l'],1,[2.9019398000018555],[None],2,1.6976059999979043,,,,,0,34,34,38,1810.757568000001,,23,Female,Right handed,Normal,,,,,,,,,,,,,,,,,,,,,,,,,,,,,,,,,,,,,,,,1810.7357403999995,1810.757568000001,1810.757568000001,1810.757568000001,1810.757568000001,1810.757568000001,1810.757568000001,1813.6604215000007,['l'],1,[2.9019398000018555],[None],1813.6615848000001,1813.6747460000006,1813.6747460000006,1813.6747460000006,1815.3757024000006,2,1.6976059999979043,2,1.6976059999979043,,,,,,,,sub25_AB,001,2026-01-18_18h44.26.859,recognitionstage,,2025.1.1,59.95958723848053,2026-01-18 18h45.51.524715 +0530,
,,,35,35,0,22,frames\Vid22_EM_T.png,frames\Vid22_L.png,['l'],1,[3.371878400001151],[None],5,1.263666099999682,,,,,0,35,35,21,1815.4075068999991,,23,Female,Right handed,Normal,,,,,,,,,,,,,,,,,,,,,,,,,,,,,,,,,,,,,,,,1815.3897308999985,1815.4075068999991,1815.4075068999991,1815.4075068999991,1815.4075068999991,1815.4075068999991,1815.4075068999991,1818.7939898000004,['l'],1,[3.371878400001151],[None],1818.7956139999987,1818.8074183999997,1818.8074183999997,1818.8074183999997,1820.0747437999999,5,1.263666099999682,5,1.263666099999682,,,,,,,,sub25_AB,001,2026-01-18_18h44.26.859,recognitionstage,,2025.1.1,59.95958723848053,2026-01-18 18h45.51.524715 +0530,
,,,36,36,0,20,frames\Vid20_EM_T.png,frames\Vid20_L.png,['l'],1,[4.1429992000012135],[None],2,1.4312098000009428,,,,,0,36,36,19,1820.1083053000002,,23,Female,Right handed,Normal,,,,,,,,,,,,,,,,,,,,,,,,,,,,,,,,,,,,,,,,1820.0952413000014,1820.1083053000002,1820.1083053000002,1820.1083053000002,1820.1083053000002,1820.1083053000002,1820.1083053000002,1824.2599878,['l'],1,[4.1429992000012135],[None],1824.260996500001,1824.2741564999997,1824.2741564999997,1824.2741564999997,1825.7082547999998,2,1.4312098000009428,2,1.4312098000009428,,,,,,,,sub25_AB,001,2026-01-18_18h44.26.859,recognitionstage,,2025.1.1,59.95958723848053,2026-01-18 18h45.51.524715 +0530,
,,,37,37,0,5,frames\Vid5_EM_T.png,frames\Vid5_L.png,['l'],1,[2.9014883000018017],[None],3,0.9820774999971036,,,,,0,37,37,4,1825.7579278999983,,23,Female,Right handed,Normal,,,,,,,,,,,,,,,,,,,,,,,,,,,,,,,,,,,,,,,,1825.7375721999997,1825.7579278999983,1825.7579278999983,1825.7579278999983,1825.7579278999983,1825.7579278999983,1825.7579278999983,1828.6601007999998,['l'],1,[2.9014883000018017],[None],1828.6610344,1828.6745766999993,1828.6745766999993,1828.6745766999993,1829.6581537999991,3,0.9820774999971036,3,0.9820774999971036,,,,,,,,sub25_AB,001,2026-01-18_18h44.26.859,recognitionstage,,2025.1.1,59.95958723848053,2026-01-18 18h45.51.524715 +0530,
,,,38,38,0,14,frames\Vid14_BB_T.png,frames\Vid14_L.png,['l'],1,[2.884448599997995],[None],4,0.6830410000002303,,,,,0,38,38,13,1829.7270076999994,,23,Female,Right handed,Normal,,,,,,,,,,,,,,,,,,,,,,,,,,,,,,,,,,,,,,,,1829.7045451000013,1829.7270076999994,1829.7270076999994,1829.7270076999994,1829.7270076999994,1829.7270076999994,1829.7270076999994,1832.6259374,['l'],1,[2.884448599997995],[None],1832.6267302000015,1832.641696999999,1832.641696999999,1832.641696999999,1833.3247346999997,4,0.6830410000002303,4,0.6830410000002303,,,,,,,,sub25_AB,001,2026-01-18_18h44.26.859,recognitionstage,,2025.1.1,59.95958723848053,2026-01-18 18h45.51.524715 +0530,
,,,39,39,0,17,frames\Vid17_BB_T.png,frames\Vid17_L.png,['r'],1,[4.506914099998539],[None],1,0.8645546999978251,,,,,0,39,39,16,1833.3608018999985,,23,Female,Right handed,Normal,,,,,,,,,,,,,,,,,,,,,,,,,,,,,,,,,,,,,,,,1833.3501474000004,1833.3608018999985,1833.3608018999985,1833.3608018999985,1833.3608018999985,1833.3608018999985,1833.3608018999985,1837.8772911000015,['r'],1,[4.506914099998539],[None],1837.8783179999991,1837.890883600001,1837.890883600001,1837.890883600001,1838.7579985000011,1,0.8645546999978251,1,0.8645546999978251,,,,,,,,sub25_AB,001,2026-01-18_18h44.26.859,recognitionstage,,2025.1.1,59.95958723848053,2026-01-18 18h45.51.524715 +0530,
,,,,,,,,,,,,,,,,,,,,,,,,,23,Female,Right handed,Normal,,,,,,,,,,,,,,,,,,,,,,,,,,,,,,,,,,,,,,,,,,,,,,,,,,,,,,,,,,,,,1838.7580906000003,1838.7753454000012,1838.7753454000012,1846.4766468999987,space,7.700074100001075,None,sub25_AB,001,2026-01-18_18h44.26.859,recognitionstage,,2025.1.1,59.95958723848053,2026-01-18 18h45.51.524715 +0530,
