path,duration,is_repeat,thisN,thisTrialN,thisRepN,movie_id,target_img,lure_img,resp.keys,resp.corr,resp.rt,resp.duration,conf_radio.response,conf_radio.rt,movie.thisRepN,movie.thisTrialN,movie.thisN,movie.thisIndex,recogloop.thisRepN,recogloop.thisTrialN,recogloop.thisN,recogloop.thisIndex,thisRow.t,notes,age,gender,handedness,vision,caffeine_2h,alcohol_smoke_12h,demographics.started,demographics.stopped,Instructions.started,text1.started,key_resp.started,Instructions.stopped,key_resp.keys,key_resp.rt,key_resp.duration,instruction_2.started,text2.started,key_resp_2.started,instruction_2.stopped,key_resp_2.keys,key_resp_2.rt,key_resp_2.duration,Videos.started,movie_2.started,vigilance_resp.started,movie_2.stopped,Videos.stopped,movie.vigilance_resp.keys,vigilance_pressed,vigilance_correct,ISI.started,text.started,text.stopped,ISI.stopped,movie.vigilance_resp.rt,movie.vigilance_resp.duration,recognition.started,text_4.started,key_resp_3.started,recognition.stopped,key_resp_3.keys,key_resp_3.rt,key_resp_3.duration,recognition_task.started,leftimage.started,rightimage.started,resp.started,frames_question.started,right_label.started,left_label.started,recognition_task.stopped,recogloop.resp.keys,recogloop.resp.corr,recogloop.resp.rt,recogloop.resp.duration,confidence.started,conf_text.started,conf_radio.started,conf_label.started,confidence.stopped,recogloop.conf_radio.response,recogloop.conf_radio.rt,confidence,confidence_rt,thank_you.started,text_6.started,key_resp_4.started,thank_you.stopped,key_resp_4.keys,key_resp_4.rt,key_resp_4.duration,participant,session,date,expName,expVersion,psychopyVersion,frameRate,expStart,...105
,,,,,,,,,,,,,,,,,,,,,,,,,22,Male,Right handed,Normal,Caffeine consumed in last 2 hours?,Alcohol or smoking in last 12 hours?,0.01849249999941094,0.020848199997999473,,,,,,,,,,,,,,,,,,,,,,,,,,,,,,,,,,,,,,,,,,,,,,,,,,,,,,,,,,,,,,,,sub30_AB,001,2026-01-18_22h07.22.702,recognitionstage,,2025.1.1,59.97041059969072,2026-01-18 22h09.07.819222 +0530,
,,,,,,,,,,,,,,,,,,,,,,,,,22,Male,Right handed,Normal,,,,,0.020869399999355664,0.037532399997871835,0.037532399997871835,16.855596199999127,space,16.810653500000626,None,,,,,,,,,,,,,,,,,,,,,,,,,,,,,,,,,,,,,,,,,,,,,,,,,,,,,,,,,sub30_AB,001,2026-01-18_22h07.22.702,recognitionstage,,2025.1.1,59.97041059969072,2026-01-18 22h09.07.819222 +0530,
,,,,,,,,,,,,,,,,,,,,,,,,,22,Male,Right handed,Normal,,,,,,,,,,,,16.855646799998794,16.87163370000053,16.87163370000053,20.7550373999984,space,3.8723711999991792,None,,,,,,,,,,,,,,,,,,,,,,,,,,,,,,,,,,,,,,,,,,,,,,,,,,sub30_AB,001,2026-01-18_22h07.22.702,recognitionstage,,2025.1.1,59.97041059969072,2026-01-18 22h09.07.819222 +0530,
abrupt_videos\abrupt_27.mp4,50,0,44,44,0,,,,,,,,,,0,44,44,29,,,,,1487.3702214000004,,22,Male,Right handed,Normal,,,,,,,,,,,,,,,,,,,1487.3225620999983,1487.3702214000004,1487.3702214000004,1537.803194199998,1537.6583103000012,None,0,1,1537.7942633999992,1537.803194199998,1540.304376600001,1540.2892552999983,2.9364778000017395,None,1540.2893361999995,1540.304376600001,1540.304376600001,1581.7387013000007,space,41.42379840000285,None,,,,,,,,,,,,,,,,,,,,,,,,,,,,,sub30_AB,001,2026-01-18_22h07.22.702,recognitionstage,,2025.1.1,59.97041059969072,2026-01-18 22h09.07.819222 +0530,
,,,0,0,0,24,frames\Vid24_BB_T.png,frames\Vid24_L.png,['r'],1,[5.591136200000619],[None],5,8.015633299997717,,,,,0,0,0,23,1581.7689806999988,,22,Male,Right handed,Normal,,,,,,,,,,,,,,,,,,,,,,,,,,,,,,,,,,,,,,,,1581.7614558999994,1581.7689806999988,1581.7689806999988,1581.7689806999988,1581.7689806999988,1581.7689806999988,1581.7689806999988,1587.3717700999987,['r'],1,[5.591136200000619],[None],1587.3726791000008,1587.3871618999983,1587.3871618999983,1587.3871618999983,1595.4041112999985,5,8.015633299997717,5,8.015633299997717,,,,,,,,sub30_AB,001,2026-01-18_22h07.22.702,recognitionstage,,2025.1.1,59.97041059969072,2026-01-18 22h09.07.819222 +0530,
,,,1,1,0,15,frames\Vid15_BB_T.png,frames\Vid15_L.png,['l'],0,[15.954614599999331],[None],5,3.665307800001756,,,,,0,1,1,14,1595.4694095999985,,22,Male,Right handed,Normal,,,,,,,,,,,,,,,,,,,,,,,,,,,,,,,,,,,,,,,,1595.457557400001,1595.4694095999985,1595.4694095999985,1595.4694095999985,1595.4694095999985,1595.4694095999985,1595.4694095999985,1611.4385819999989,['l'],0,[15.954614599999331],[None],1611.4393528,1611.4539650000006,1611.4539650000006,1611.4539650000006,1615.1217139,5,3.665307800001756,5,3.665307800001756,,,,,,,,sub30_AB,001,2026-01-18_22h07.22.702,recognitionstage,,2025.1.1,59.97041059969072,2026-01-18 22h09.07.819222 +0530,
,,,2,2,0,9,frames\Vid9_EM_T.png,frames\Vid9_L.png,['r'],1,[10.35022730000128],[None],4,2.46299050000016,,,,,0,2,2,8,1615.186182999998,,22,Male,Right handed,Normal,,,,,,,,,,,,,,,,,,,,,,,,,,,,,,,,,,,,,,,,1615.1708306,1615.186182999998,1615.186182999998,1615.186182999998,1615.186182999998,1615.186182999998,1615.186182999998,1625.5408158999999,['r'],1,[10.35022730000128],[None],1625.5419755000003,1625.5688300000002,1625.5688300000002,1625.5688300000002,1628.0212579,4,2.46299050000016,4,2.46299050000016,,,,,,,,sub30_AB,001,2026-01-18_22h07.22.702,recognitionstage,,2025.1.1,59.97041059969072,2026-01-18 22h09.07.819222 +0530,
,,,3,3,0,7,frames\Vid7_EM_T.png,frames\Vid7_L.png,['l'],1,[5.583192699999927],[None],5,1.162538399999903,,,,,0,3,3,6,1628.0731487000012,,22,Male,Right handed,Normal,,,,,,,,,,,,,,,,,,,,,,,,,,,,,,,,,,,,,,,,1628.0640886,1628.0731487000012,1628.0731487000012,1628.0731487000012,1628.0731487000012,1628.0731487000012,1628.0731487000012,1633.6578038999978,['l'],1,[5.583192699999927],[None],1633.6592519000005,1633.6853941000008,1633.6853941000008,1633.6853941000008,1634.8377407000007,5,1.162538399999903,5,1.162538399999903,,,,,,,,sub30_AB,001,2026-01-18_22h07.22.702,recognitionstage,,2025.1.1,59.97041059969072,2026-01-18 22h09.07.819222 +0530,
,,,4,4,0,27,frames\Vid27_BB_T.png,frames\Vid27_L.png,['r'],1,[5.255185000001802],[None],5,1.0481362999998964,,,,,0,4,4,26,1634.8728708999988,,22,Male,Right handed,Normal,,,,,,,,,,,,,,,,,,,,,,,,,,,,,,,,,,,,,,,,1634.8483656999997,1634.8728708999988,1634.8728708999988,1634.8728708999988,1634.8728708999988,1634.8728708999988,1634.8728708999988,1640.1393344999997,['r'],1,[5.255185000001802],[None],1640.1405607999986,1640.1541949999992,1640.1541949999992,1640.1541949999992,1641.2039798000005,5,1.0481362999998964,5,1.0481362999998964,,,,,,,,sub30_AB,001,2026-01-18_22h07.22.702,recognitionstage,,2025.1.1,59.97041059969072,2026-01-18 22h09.07.819222 +0530,
,,,5,5,0,40,frames\Vid40_EM_T.png,frames\Vid40_L.png,['l'],1,[12.39373699999851],[None],4,2.781412399999681,,,,,0,5,5,39,1641.2224247999984,,22,Male,Right handed,Normal,,,,,,,,,,,,,,,,,,,,,,,,,,,,,,,,,,,,,,,,1641.211233599999,1641.2224247999984,1641.2224247999984,1641.2224247999984,1641.2224247999984,1641.2224247999984,1641.2224247999984,1653.6227330000002,['l'],1,[12.39373699999851],[None],1653.6235453000008,1653.6374073999978,1653.6374073999978,1653.6374073999978,1656.4219725000003,4,2.781412399999681,4,2.781412399999681,,,,,,,,sub30_AB,001,2026-01-18_22h07.22.702,recognitionstage,,2025.1.1,59.97041059969072,2026-01-18 22h09.07.819222 +0530,
,,,6,6,0,37,frames\Vid37_BB_T.png,frames\Vid37_L.png,['r'],1,[3.9626532000002044],[None],5,1.2310412000006181,,,,,0,6,6,36,1656.4535596999995,,22,Male,Right handed,Normal,,,,,,,,,,,,,,,,,,,,,,,,,,,,,,,,,,,,,,,,1656.4371434999994,1656.4535596999995,1656.4535596999995,1656.4535596999995,1656.4535596999995,1656.4535596999995,1656.4535596999995,1660.4222556999994,['r'],1,[3.9626532000002044],[None],1660.4232195000004,1660.4372292000007,1660.4372292000007,1660.4372292000007,1661.6716750999985,5,1.2310412000006181,5,1.2310412000006181,,,,,,,,sub30_AB,001,2026-01-18_22h07.22.702,recognitionstage,,2025.1.1,59.97041059969072,2026-01-18 22h09.07.819222 +0530,
,,,7,7,0,36,frames\Vid36_BB_T.png,frames\Vid36_L.png,['l'],0,[14.456402800002252],[None],3,1.5653071999986423,,,,,0,7,7,35,1661.7037081999988,,22,Male,Right handed,Normal,,,,,,,,,,,,,,,,,,,,,,,,,,,,,,,,,,,,,,,,1661.6871107000006,1661.7037081999988,1661.7037081999988,1661.7037081999988,1661.7037081999988,1661.7037081999988,1661.7037081999988,1676.1719458000007,['l'],0,[14.456402800002252],[None],1676.1728417000013,1676.1871408999978,1676.1871408999978,1676.1871408999978,1677.7553834999999,3,1.5653071999986423,3,1.5653071999986423,,,,,,,,sub30_AB,001,2026-01-18_22h07.22.702,recognitionstage,,2025.1.1,59.97041059969072,2026-01-18 22h09.07.819222 +0530,
,,,8,8,0,21,frames\Vid21_BB_T.png,frames\Vid21_L.png,['r'],1,[11.788833599999634],[None],5,1.2482571000000462,,,,,0,8,8,20,1677.7873285999995,,22,Male,Right handed,Normal,,,,,,,,,,,,,,,,,,,,,,,,,,,,,,,,,,,,,,,,1677.7700879000004,1677.7873285999995,1677.7873285999995,1677.7873285999995,1677.7873285999995,1677.7873285999995,1677.7873285999995,1689.5896322000008,['r'],1,[11.788833599999634],[None],1689.590885900001,1689.6039830000009,1689.6039830000009,1689.6039830000009,1690.8545331999994,5,1.2482571000000462,5,1.2482571000000462,,,,,,,,sub30_AB,001,2026-01-18_22h07.22.702,recognitionstage,,2025.1.1,59.97041059969072,2026-01-18 22h09.07.819222 +0530,
,,,9,9,0,14,frames\Vid14_BB_T.png,frames\Vid14_L.png,['l'],1,[8.302824200000032],[None],3,1.514167199999065,,,,,0,9,9,13,1690.921280999999,,22,Male,Right handed,Normal,,,,,,,,,,,,,,,,,,,,,,,,,,,,,,,,,,,,,,,,1690.899972799998,1690.921280999999,1690.921280999999,1690.921280999999,1690.921280999999,1690.921280999999,1690.921280999999,1699.2393011999993,['l'],1,[8.302824200000032],[None],1699.2401592999995,1699.2535967000003,1699.2535967000003,1699.2535967000003,1700.771926999998,3,1.514167199999065,3,1.514167199999065,,,,,,,,sub30_AB,001,2026-01-18_22h07.22.702,recognitionstage,,2025.1.1,59.97041059969072,2026-01-18 22h09.07.819222 +0530,
,,,10,10,0,12,frames\Vid12_EM_T.png,frames\Vid12_L.png,['r'],1,[2.615761199998815],[None],5,0.8973541000013938,,,,,0,10,10,11,1700.8405316999997,,22,Male,Right handed,Normal,,,,,,,,,,,,,,,,,,,,,,,,,,,,,,,,,,,,,,,,1700.8182835999978,1700.8405316999997,1700.8405316999997,1700.8405316999997,1700.8405316999997,1700.8405316999997,1700.8405316999997,1703.4568347999993,['r'],1,[2.615761199998815],[None],1703.457727500001,1703.4702952999978,1703.4702952999978,1703.4702952999978,1704.3709722999993,5,0.8973541000013938,5,0.8973541000013938,,,,,,,,sub30_AB,001,2026-01-18_22h07.22.702,recognitionstage,,2025.1.1,59.97041059969072,2026-01-18 22h09.07.819222 +0530,
,,,11,11,0,13,frames\Vid13_BB_T.png,frames\Vid13_L.png,['l'],0,[9.888299999998708],[None],4,2.0476067000017792,,,,,0,11,11,12,1704.4238923999983,,22,Male,Right handed,Normal,,,,,,,,,,,,,,,,,,,,,,,,,,,,,,,,,,,,,,,,1704.4061046999996,1704.4238923999983,1704.4238923999983,1704.4238923999983,1704.4238923999983,1704.4238923999983,1704.4238923999983,1714.3230832000008,['l'],0,[9.888299999998708],[None],1714.3242589000001,1714.3373259,1714.3373259,1714.3373259,1716.3879124999985,4,2.0476067000017792,4,2.0476067000017792,,,,,,,,sub30_AB,001,2026-01-18_22h07.22.702,recognitionstage,,2025.1.1,59.97041059969072,2026-01-18 22h09.07.819222 +0530,
,,,12,12,0,26,frames\Vid26_EM_T.png,frames\Vid26_L.png,['l'],1,[5.5052340000002005],[None],5,0.9660846999977366,,,,,0,12,12,25,1716.4228412999983,,22,Male,Right handed,Normal,,,,,,,,,,,,,,,,,,,,,,,,,,,,,,,,,,,,,,,,1716.4048438999998,1716.4228412999983,1716.4228412999983,1716.4228412999983,1716.4228412999983,1716.4228412999983,1716.4228412999983,1721.9389238000003,['l'],1,[5.5052340000002005],[None],1721.9396220999988,1721.953589599998,1721.953589599998,1721.953589599998,1722.9209996999998,5,0.9660846999977366,5,0.9660846999977366,,,,,,,,sub30_AB,001,2026-01-18_22h07.22.702,recognitionstage,,2025.1.1,59.97041059969072,2026-01-18 22h09.07.819222 +0530,
,,,13,13,0,20,frames\Vid20_EM_T.png,frames\Vid20_L.png,['r'],1,[4.213607999998203],[None],5,0.8979712000000291,,,,,0,13,13,19,1722.939211500001,,22,Male,Right handed,Normal,,,,,,,,,,,,,,,,,,,,,,,,,,,,,,,,,,,,,,,,1722.9273614000012,1722.939211500001,1722.939211500001,1722.939211500001,1722.939211500001,1722.939211500001,1722.939211500001,1727.155877199999,['r'],1,[4.213607999998203],[None],1727.1568813000013,1727.170607199998,1727.170607199998,1727.170607199998,1728.0719869999994,5,0.8979712000000291,5,0.8979712000000291,,,,,,,,sub30_AB,001,2026-01-18_22h07.22.702,recognitionstage,,2025.1.1,59.97041059969072,2026-01-18 22h09.07.819222 +0530,
,,,14,14,0,11,frames\Vid11_EM_T.png,frames\Vid11_L.png,['l'],1,[2.943454299998848],[None],5,0.8474838999973144,,,,,0,14,14,10,1728.1207361999986,,22,Male,Right handed,Normal,,,,,,,,,,,,,,,,,,,,,,,,,,,,,,,,,,,,,,,,1728.1147270000001,1728.1207361999986,1728.1207361999986,1728.1207361999986,1728.1207361999986,1728.1207361999986,1728.1207361999986,1731.0728531999994,['l'],1,[2.943454299998848],[None],1731.0738454999992,1731.0873348999994,1731.0873348999994,1731.0873348999994,1731.9386916000003,5,0.8474838999973144,5,0.8474838999973144,,,,,,,,sub30_AB,001,2026-01-18_22h07.22.702,recognitionstage,,2025.1.1,59.97041059969072,2026-01-18 22h09.07.819222 +0530,
,,,15,15,0,38,frames\Vid38_EM_T.png,frames\Vid38_L.png,['l'],1,[6.475190600001952],[None],5,1.1805080000012822,,,,,0,15,15,37,1731.9729327999994,,22,Male,Right handed,Normal,,,,,,,,,,,,,,,,,,,,,,,,,,,,,,,,,,,,,,,,1731.9498340999999,1731.9729327999994,1731.9729327999994,1731.9729327999994,1731.9729327999994,1731.9729327999994,1731.9729327999994,1738.457056799998,['l'],1,[6.475190600001952],[None],1738.4580872000006,1738.4704906000006,1738.4704906000006,1738.4704906000006,1739.6552788000008,5,1.1805080000012822,5,1.1805080000012822,,,,,,,,sub30_AB,001,2026-01-18_22h07.22.702,recognitionstage,,2025.1.1,59.97041059969072,2026-01-18 22h09.07.819222 +0530,
,,,16,16,0,39,frames\Vid39_BB_T.png,frames\Vid39_L.png,['r'],0,[9.46414999999979],[None],3,2.648400699999911,,,,,0,16,16,38,1739.6723500000007,,22,Male,Right handed,Normal,,,,,,,,,,,,,,,,,,,,,,,,,,,,,,,,,,,,,,,,1739.6630138,1739.6723500000007,1739.6723500000007,1739.6723500000007,1739.6723500000007,1739.6723500000007,1739.6723500000007,1749.1398597000007,['r'],0,[9.46414999999979],[None],1749.140913299998,1749.1688877999986,1749.1688877999986,1749.1688877999986,1751.8042788999992,3,2.648400699999911,3,2.648400699999911,,,,,,,,sub30_AB,001,2026-01-18_22h07.22.702,recognitionstage,,2025.1.1,59.97041059969072,2026-01-18 22h09.07.819222 +0530,
,,,17,17,0,22,frames\Vid22_EM_T.png,frames\Vid22_L.png,['l'],1,[3.0591247999982443],[None],5,0.9153026000021782,,,,,0,17,17,21,1751.837027999998,,22,Male,Right handed,Normal,,,,,,,,,,,,,,,,,,,,,,,,,,,,,,,,,,,,,,,,1751.8187455000007,1751.837027999998,1751.837027999998,1751.837027999998,1751.837027999998,1751.837027999998,1751.837027999998,1754.9059768000006,['l'],1,[3.0591247999982443],[None],1754.9070812999998,1754.920932500001,1754.920932500001,1754.920932500001,1755.8379728,5,0.9153026000021782,5,0.9153026000021782,,,,,,,,sub30_AB,001,2026-01-18_22h07.22.702,recognitionstage,,2025.1.1,59.97041059969072,2026-01-18 22h09.07.819222 +0530,
,,,18,18,0,5,frames\Vid5_EM_T.png,frames\Vid5_L.png,['r'],0,[12.448094200000924],[None],3,1.3315873999999894,,,,,0,18,18,4,1755.8880121000002,,22,Male,Right handed,Normal,,,,,,,,,,,,,,,,,,,,,,,,,,,,,,,,,,,,,,,,1755.8694192000003,1755.8880121000002,1755.8880121000002,1755.8880121000002,1755.8880121000002,1755.8880121000002,1755.8880121000002,1768.3393609999985,['r'],0,[12.448094200000924],[None],1768.3402193000002,1768.353532699999,1768.353532699999,1768.353532699999,1769.6878889,3,1.3315873999999894,3,1.3315873999999894,,,,,,,,sub30_AB,001,2026-01-18_22h07.22.702,recognitionstage,,2025.1.1,59.97041059969072,2026-01-18 22h09.07.819222 +0530,
,,,19,19,0,18,frames\Vid18_EM_T.png,frames\Vid18_L.png,['l'],1,[4.213885000001028],[None],4,1.7302233999980672,,,,,0,19,19,17,1769.7223288999994,,22,Male,Right handed,Normal,,,,,,,,,,,,,,,,,,,,,,,,,,,,,,,,,,,,,,,,1769.7001137999978,1769.7223288999994,1769.7223288999994,1769.7223288999994,1769.7223288999994,1769.7223288999994,1769.7223288999994,1773.9402587000004,['l'],1,[4.213885000001028],[None],1773.9414453999998,1773.9535692999998,1773.9535692999998,1773.9535692999998,1775.6877209000013,4,1.7302233999980672,4,1.7302233999980672,,,,,,,,sub30_AB,001,2026-01-18_22h07.22.702,recognitionstage,,2025.1.1,59.97041059969072,2026-01-18 22h09.07.819222 +0530,
,,,20,20,0,31,frames\Vid31_EM_T.png,frames\Vid31_L.png,['r'],1,[3.8059725999992224],[None],5,1.0156193999973766,,,,,0,20,20,30,1775.7061455000003,,22,Male,Right handed,Normal,,,,,,,,,,,,,,,,,,,,,,,,,,,,,,,,,,,,,,,,1775.6959844000012,1775.7061455000003,1775.7061455000003,1775.7061455000003,1775.7061455000003,1775.7061455000003,1775.7061455000003,1779.522194000001,['r'],1,[3.8059725999992224],[None],1779.523048799998,1779.5373794000006,1779.5373794000006,1779.5373794000006,1780.5540220000003,5,1.0156193999973766,5,1.0156193999973766,,,,,,,,sub30_AB,001,2026-01-18_22h07.22.702,recognitionstage,,2025.1.1,59.97041059969072,2026-01-18 22h09.07.819222 +0530,
,,,21,21,0,25,frames\Vid25_BB_T.png,frames\Vid25_L.png,['l'],1,[14.707863700001326],[None],2,2.9314349999986007,,,,,0,21,21,24,1780.5723206000002,,22,Male,Right handed,Normal,,,,,,,,,,,,,,,,,,,,,,,,,,,,,,,,,,,,,,,,1780.5637871,1780.5723206000002,1780.5723206000002,1780.5723206000002,1780.5723206000002,1780.5723206000002,1780.5723206000002,1795.2887910999998,['l'],1,[14.707863700001326],[None],1795.2897793999982,1795.3040809000013,1795.3040809000013,1795.3040809000013,1798.2386243,2,2.9314349999986007,2,2.9314349999986007,,,,,,,,sub30_AB,001,2026-01-18_22h07.22.702,recognitionstage,,2025.1.1,59.97041059969072,2026-01-18 22h09.07.819222 +0530,
,,,22,22,0,19,frames\Vid19_BB_T.png,frames\Vid19_L.png,['r'],1,[4.769703600002686],[None],4,1.3989010000004782,,,,,0,22,22,18,1798.270399099998,,22,Male,Right handed,Normal,,,,,,,,,,,,,,,,,,,,,,,,,,,,,,,,,,,,,,,,1798.251399599998,1798.270399099998,1798.270399099998,1798.270399099998,1798.270399099998,1798.270399099998,1798.270399099998,1803.0562685000004,['r'],1,[4.769703600002686],[None],1803.0570144000012,1803.0701700999998,1803.0701700999998,1803.0701700999998,1804.4714204999982,4,1.3989010000004782,4,1.3989010000004782,,,,,,,,sub30_AB,001,2026-01-18_22h07.22.702,recognitionstage,,2025.1.1,59.97041059969072,2026-01-18 22h09.07.819222 +0530,
,,,23,23,0,4,frames\Vid4_EM_T.png,frames\Vid4_L.png,['l'],1,[21.69445640000049],[None],4,0.8163701999983459,,,,,0,23,23,3,1804.5376247999993,,22,Male,Right handed,Normal,,,,,,,,,,,,,,,,,,,,,,,,,,,,,,,,,,,,,,,,1804.5164571999994,1804.5376247999993,1804.5376247999993,1804.5376247999993,1804.5376247999993,1804.5376247999993,1804.5376247999993,1826.2387460999998,['l'],1,[21.69445640000049],[None],1826.2398141000012,1826.2541414999978,1826.2541414999978,1826.2541414999978,1827.0708540999985,4,0.8163701999983459,4,0.8163701999983459,,,,,,,,sub30_AB,001,2026-01-18_22h07.22.702,recognitionstage,,2025.1.1,59.97041059969072,2026-01-18 22h09.07.819222 +0530,
,,,24,24,0,32,frames\Vid32_EM_T.png,frames\Vid32_L.png,['l'],1,[4.149619299998449],[None],5,0.8659293999990041,,,,,0,24,24,31,1827.1064665999984,,22,Male,Right handed,Normal,,,,,,,,,,,,,,,,,,,,,,,,,,,,,,,,,,,,,,,,1827.0822518999994,1827.1064665999984,1827.1064665999984,1827.1064665999984,1827.1064665999984,1827.1064665999984,1827.1064665999984,1831.2719354,['l'],1,[4.149619299998449],[None],1831.272830400001,1831.2872581999982,1831.2872581999982,1831.2872581999982,1832.1549605,5,0.8659293999990041,5,0.8659293999990041,,,,,,,,sub30_AB,001,2026-01-18_22h07.22.702,recognitionstage,,2025.1.1,59.97041059969072,2026-01-18 22h09.07.819222 +0530,
,,,25,25,0,8,frames\Vid8_BB_T.png,frames\Vid8_L.png,['r'],1,[6.779797800001688],[None],5,0.6979362999991281,,,,,0,25,25,7,1832.2045046999992,,22,Male,Right handed,Normal,,,,,,,,,,,,,,,,,,,,,,,,,,,,,,,,,,,,,,,,1832.1930939000013,1832.2045046999992,1832.2045046999992,1832.2045046999992,1832.2045046999992,1832.2045046999992,1832.2045046999992,1838.9898562999988,['r'],1,[6.779797800001688],[None],1838.990854399999,1839.0037783999978,1839.0037783999978,1839.0037783999978,1839.704561300001,5,0.6979362999991281,5,0.6979362999991281,,,,,,,,sub30_AB,001,2026-01-18_22h07.22.702,recognitionstage,,2025.1.1,59.97041059969072,2026-01-18 22h09.07.819222 +0530,
,,,26,26,0,29,frames\Vid29_BB_T.png,frames\Vid29_L.png,['l'],1,[10.020234299998265],[None],4,1.7653891000009025,,,,,0,26,26,28,1839.7398080999992,,22,Male,Right handed,Normal,,,,,,,,,,,,,,,,,,,,,,,,,,,,,,,,,,,,,,,,1839.7159981000004,1839.7398080999992,1839.7398080999992,1839.7398080999992,1839.7398080999992,1839.7398080999992,1839.7398080999992,1849.7716551000012,['l'],1,[10.020234299998265],[None],1849.7728768999987,1849.787272900001,1849.787272900001,1849.787272900001,1851.5553244000002,4,1.7653891000009025,4,1.7653891000009025,,,,,,,,sub30_AB,001,2026-01-18_22h07.22.702,recognitionstage,,2025.1.1,59.97041059969072,2026-01-18 22h09.07.819222 +0530,
,,,27,27,0,2,frames\Vid2_BB_T.png,frames\Vid2_L.png,['l'],1,[4.7397191999989445],[None],5,1.2131497000009404,,,,,0,27,27,1,1851.6044537999987,,22,Male,Right handed,Normal,,,,,,,,,,,,,,,,,,,,,,,,,,,,,,,,,,,,,,,,1851.5938442999977,1851.6044537999987,1851.6044537999987,1851.6044537999987,1851.6044537999987,1851.6044537999987,1851.6044537999987,1856.3573531000002,['l'],1,[4.7397191999989445],[None],1856.3586891999985,1856.3701398000012,1856.3701398000012,1856.3701398000012,1857.588622700001,5,1.2131497000009404,5,1.2131497000009404,,,,,,,,sub30_AB,001,2026-01-18_22h07.22.702,recognitionstage,,2025.1.1,59.97041059969072,2026-01-18 22h09.07.819222 +0530,
,,,28,28,0,1,frames\Vid1_EM_T.png,frames\Vid1_L.png,['l'],1,[3.318468400000711],[None],5,1.1642361000012897,,,,,0,28,28,0,1857.6576016,,22,Male,Right handed,Normal,,,,,,,,,,,,,,,,,,,,,,,,,,,,,,,,,,,,,,,,1857.6357801999984,1857.6576016,1857.6576016,1857.6576016,1857.6576016,1857.6576016,1857.6576016,1860.9896109000001,['l'],1,[3.318468400000711],[None],1860.9905101000004,1861.0039526,1861.0039526,1861.0039526,1862.172120299998,5,1.1642361000012897,5,1.1642361000012897,,,,,,,,sub30_AB,001,2026-01-18_22h07.22.702,recognitionstage,,2025.1.1,59.97041059969072,2026-01-18 22h09.07.819222 +0530,
,,,29,29,0,23,frames\Vid23_EM_T.png,frames\Vid23_L.png,['l'],1,[8.273195599998871],[None],3,1.013868600002752,,,,,0,29,29,22,1862.2069679999986,,22,Male,Right handed,Normal,,,,,,,,,,,,,,,,,,,,,,,,,,,,,,,,,,,,,,,,1862.189129899998,1862.2069679999986,1862.2069679999986,1862.2069679999986,1862.2069679999986,1862.2069679999986,1862.2069679999986,1870.4907064,['l'],1,[8.273195599998871],[None],1870.4916841999984,1870.5185902999983,1870.5185902999983,1870.5185902999983,1871.5209952000005,3,1.013868600002752,3,1.013868600002752,,,,,,,,sub30_AB,001,2026-01-18_22h07.22.702,recognitionstage,,2025.1.1,59.97041059969072,2026-01-18 22h09.07.819222 +0530,
,,,30,30,0,35,frames\Vid35_EM_T.png,frames\Vid35_L.png,['l'],1,[7.340615700002672],[None],3,1.0165360999999393,,,,,0,30,30,34,1871.539469899999,,22,Male,Right handed,Normal,,,,,,,,,,,,,,,,,,,,,,,,,,,,,,,,,,,,,,,,1871.5288217999987,1871.539469899999,1871.539469899999,1871.539469899999,1871.539469899999,1871.539469899999,1871.539469899999,1878.8884297000004,['l'],1,[7.340615700002672],[None],1878.889071900001,1878.9042512999986,1878.9042512999986,1878.9042512999986,1879.920887100001,3,1.0165360999999393,3,1.0165360999999393,,,,,,,,sub30_AB,001,2026-01-18_22h07.22.702,recognitionstage,,2025.1.1,59.97041059969072,2026-01-18 22h09.07.819222 +0530,
,,,31,31,0,16,frames\Vid16_EM_T.png,frames\Vid16_L.png,['r'],1,[11.01350839999941],[None],4,1.0468390000023646,,,,,0,31,31,15,1879.9707010999991,,22,Male,Right handed,Normal,,,,,,,,,,,,,,,,,,,,,,,,,,,,,,,,,,,,,,,,1879.9589154999994,1879.9707010999991,1879.9707010999991,1879.9707010999991,1879.9707010999991,1879.9707010999991,1879.9707010999991,1890.9900361,['r'],1,[11.01350839999941],[None],1890.9910956999993,1891.0036653999996,1891.0036653999996,1891.0036653999996,1892.0548790999965,4,1.0468390000023646,4,1.0468390000023646,,,,,,,,sub30_AB,001,2026-01-18_22h07.22.702,recognitionstage,,2025.1.1,59.97041059969072,2026-01-18 22h09.07.819222 +0530,
,,,32,32,0,6,frames\Vid6_BB_T.png,frames\Vid6_L.png,['r'],1,[3.3802009999999427],[None],5,1.9309806000019307,,,,,0,32,32,5,1892.1239953999975,,22,Male,Right handed,Normal,,,,,,,,,,,,,,,,,,,,,,,,,,,,,,,,,,,,,,,,1892.0983691000001,1892.1239953999975,1892.1239953999975,1892.1239953999975,1892.1239953999975,1892.1239953999975,1892.1239953999975,1895.5069822000005,['r'],1,[3.3802009999999427],[None],1895.507936199996,1895.5202793999997,1895.5202793999997,1895.5202793999997,1897.454158200002,5,1.9309806000019307,5,1.9309806000019307,,,,,,,,sub30_AB,001,2026-01-18_22h07.22.702,recognitionstage,,2025.1.1,59.97041059969072,2026-01-18 22h09.07.819222 +0530,
,,,33,33,0,33,frames\Vid33_BB_T.png,frames\Vid33_L.png,['l'],1,[5.1566859999948065],[None],5,1.1457623000023887,,,,,0,33,33,32,1897.4756723000028,,22,Male,Right handed,Normal,,,,,,,,,,,,,,,,,,,,,,,,,,,,,,,,,,,,,,,,1897.4627446000013,1897.4756723000028,1897.4756723000028,1897.4756723000028,1897.4756723000028,1897.4756723000028,1897.4756723000028,1902.6411181000003,['l'],1,[5.1566859999948065],[None],1902.6422440999959,1902.653571099996,1902.653571099996,1902.653571099996,1903.8046611999962,5,1.1457623000023887,5,1.1457623000023887,,,,,,,,sub30_AB,001,2026-01-18_22h07.22.702,recognitionstage,,2025.1.1,59.97041059969072,2026-01-18 22h09.07.819222 +0530,
,,,34,34,0,3,frames\Vid3_BB_T.png,frames\Vid3_L.png,['l'],1,[3.1055395000003045],[None],5,1.7142261999979382,,,,,0,34,34,2,1903.8545164000025,,22,Male,Right handed,Normal,,,,,,,,,,,,,,,,,,,,,,,,,,,,,,,,,,,,,,,,1903.8428024000023,1903.8545164000025,1903.8545164000025,1903.8545164000025,1903.8545164000025,1903.8545164000025,1903.8545164000025,1906.9727675999966,['l'],1,[3.1055395000003045],[None],1906.9737016,1906.987021300003,1906.987021300003,1906.987021300003,1908.7046650999982,5,1.7142261999979382,5,1.7142261999979382,,,,,,,,sub30_AB,001,2026-01-18_22h07.22.702,recognitionstage,,2025.1.1,59.97041059969072,2026-01-18 22h09.07.819222 +0530,
,,,35,35,0,10,frames\Vid10_BB_T.png,frames\Vid10_L.png,['r'],1,[5.73878710000281],[None],4,1.6137767000036547,,,,,0,35,35,9,1908.7573489999995,,22,Male,Right handed,Normal,,,,,,,,,,,,,,,,,,,,,,,,,,,,,,,,,,,,,,,,1908.7473434999993,1908.7573489999995,1908.7573489999995,1908.7573489999995,1908.7573489999995,1908.7573489999995,1908.7573489999995,1914.5065056000021,['r'],1,[5.73878710000281],[None],1914.507476400002,1914.5201904999994,1914.5201904999994,1914.5201904999994,1916.1376640000017,4,1.6137767000036547,4,1.6137767000036547,,,,,,,,sub30_AB,001,2026-01-18_22h07.22.702,recognitionstage,,2025.1.1,59.97041059969072,2026-01-18 22h09.07.819222 +0530,
,,,36,36,0,30,frames\Vid30_EM_T.png,frames\Vid30_L.png,['r'],1,[7.161551200006215],[None],5,1.082154100004118,,,,,0,36,36,29,1916.1584962999987,,22,Male,Right handed,Normal,,,,,,,,,,,,,,,,,,,,,,,,,,,,,,,,,,,,,,,,1916.1470448999971,1916.1584962999987,1916.1584962999987,1916.1584962999987,1916.1584962999987,1916.1584962999987,1916.1584962999987,1923.3223068000007,['r'],1,[7.161551200006215],[None],1923.323226499997,1923.352288199996,1923.352288199996,1923.352288199996,1924.4210057000018,5,1.082154100004118,5,1.082154100004118,,,,,,,,sub30_AB,001,2026-01-18_22h07.22.702,recognitionstage,,2025.1.1,59.97041059969072,2026-01-18 22h09.07.819222 +0530,
,,,37,37,0,34,frames\Vid34_BB_T.png,frames\Vid34_L.png,['l'],1,[5.040838699998858],[None],3,0.7816639000011492,,,,,0,37,37,33,1924.4392946000007,,22,Male,Right handed,Normal,,,,,,,,,,,,,,,,,,,,,,,,,,,,,,,,,,,,,,,,1924.4295487999989,1924.4392946000007,1924.4392946000007,1924.4392946000007,1924.4392946000007,1924.4392946000007,1924.4392946000007,1929.489066299997,['l'],1,[5.040838699998858],[None],1929.4900163999991,1929.5039929999984,1929.5039929999984,1929.5039929999984,1930.2875729000007,3,0.7816639000011492,3,0.7816639000011492,,,,,,,,sub30_AB,001,2026-01-18_22h07.22.702,recognitionstage,,2025.1.1,59.97041059969072,2026-01-18 22h09.07.819222 +0530,
,,,38,38,0,17,frames\Vid17_BB_T.png,frames\Vid17_L.png,['l'],0,[6.775476499999058],[None],3,0.8800785999992513,,,,,0,38,38,16,1930.320789999998,,22,Male,Right handed,Normal,,,,,,,,,,,,,,,,,,,,,,,,,,,,,,,,,,,,,,,,1930.311096999998,1930.320789999998,1930.320789999998,1930.320789999998,1930.320789999998,1930.320789999998,1930.320789999998,1937.1066398999974,['l'],0,[6.775476499999058],[None],1937.107837800002,1937.1201543999996,1937.1201543999996,1937.1201543999996,1938.0045333000016,3,0.8800785999992513,3,0.8800785999992513,,,,,,,,sub30_AB,001,2026-01-18_22h07.22.702,recognitionstage,,2025.1.1,59.97041059969072,2026-01-18 22h09.07.819222 +0530,
,,,39,39,0,28,frames\Vid28_EM_T.png,frames\Vid28_L.png,['l'],1,[3.472712999995565],[None],5,0.7977735000022221,,,,,0,39,39,27,1938.0233987000029,,22,Male,Right handed,Normal,,,,,,,,,,,,,,,,,,,,,,,,,,,,,,,,,,,,,,,,1938.0147975,1938.0233987000029,1938.0233987000029,1938.0233987000029,1938.0233987000029,1938.0233987000029,1938.0233987000029,1941.5064085999984,['l'],1,[3.472712999995565],[None],1941.5074036000005,1941.520279999997,1941.520279999997,1941.520279999997,1942.3209491000016,5,0.7977735000022221,5,0.7977735000022221,,,,,,,,sub30_AB,001,2026-01-18_22h07.22.702,recognitionstage,,2025.1.1,59.97041059969072,2026-01-18 22h09.07.819222 +0530,
,,,,,,,,,,,,,,,,,,,,,,,,,22,Male,Right handed,Normal,,,,,,,,,,,,,,,,,,,,,,,,,,,,,,,,,,,,,,,,,,,,,,,,,,,,,,,,,,,,,1942.3210435,1942.3383312000005,1942.3383312000005,1944.139743599997,space,1.7979447999969125,None,sub30_AB,001,2026-01-18_22h07.22.702,recognitionstage,,2025.1.1,59.97041059969072,2026-01-18 22h09.07.819222 +0530,
