path,duration,is_repeat,thisN,thisTrialN,thisRepN,movie_id,target_img,lure_img,resp.keys,resp.corr,resp.rt,resp.duration,conf_radio.response,conf_radio.rt,movie.thisRepN,movie.thisTrialN,movie.thisN,movie.thisIndex,recogloop.thisRepN,recogloop.thisTrialN,recogloop.thisN,recogloop.thisIndex,thisRow.t,notes,age,gender,handedness,vision,caffeine_2h,alcohol_smoke_12h,demographics.started,demographics.stopped,Instructions.started,text1.started,key_resp.started,Instructions.stopped,key_resp.keys,key_resp.rt,key_resp.duration,instruction_2.started,text2.started,key_resp_2.started,instruction_2.stopped,key_resp_2.keys,key_resp_2.rt,key_resp_2.duration,Videos.started,movie_2.started,vigilance_resp.started,movie_2.stopped,Videos.stopped,movie.vigilance_resp.keys,vigilance_pressed,vigilance_correct,ISI.started,text.started,text.stopped,ISI.stopped,movie.vigilance_resp.rt,movie.vigilance_resp.duration,recognition.started,text_4.started,key_resp_3.started,recognition.stopped,key_resp_3.keys,key_resp_3.rt,key_resp_3.duration,recognition_task.started,leftimage.started,rightimage.started,resp.started,frames_question.started,right_label.started,left_label.started,recognition_task.stopped,recogloop.resp.keys,recogloop.resp.corr,recogloop.resp.rt,recogloop.resp.duration,confidence.started,conf_text.started,conf_radio.started,conf_label.started,confidence.stopped,recogloop.conf_radio.response,recogloop.conf_radio.rt,confidence,confidence_rt,thank_you.started,text_6.started,key_resp_4.started,thank_you.stopped,key_resp_4.keys,key_resp_4.rt,key_resp_4.duration,participant,session,date,expName,expVersion,psychopyVersion,frameRate,expStart,...105
,,,,,,,,,,,,,,,,,,,,,,,,,20,Female,Right handed,Corrected to normal,Caffeine consumed in last 2 hours?,Alcohol or smoking in last 12 hours?,0.010252300002321135,0.012698200000158977,,,,,,,,,,,,,,,,,,,,,,,,,,,,,,,,,,,,,,,,,,,,,,,,,,,,,,,,,,,,,,,,sub29_AB,001,2026-01-18_21h28.29.450,recognitionstage,,2025.1.1,59.5658601844089,2026-01-18 21h29.53.852019 +0530,
,,,,,,,,,,,,,,,,,,,,,,,,,20,Female,Right handed,Corrected to normal,,,,,0.012720200000330806,0.02884460000132094,0.02884460000132094,10.58031160000246,space,10.537471199997526,None,,,,,,,,,,,,,,,,,,,,,,,,,,,,,,,,,,,,,,,,,,,,,,,,,,,,,,,,,sub29_AB,001,2026-01-18_21h28.29.450,recognitionstage,,2025.1.1,59.5658601844089,2026-01-18 21h29.53.852019 +0530,
,,,,,,,,,,,,,,,,,,,,,,,,,20,Female,Right handed,Corrected to normal,,,,,,,,,,,,10.580371100000775,10.596921800002747,10.596921800002747,18.864501399999426,space,8.265382900000986,None,,,,,,,,,,,,,,,,,,,,,,,,,,,,,,,,,,,,,,,,,,,,,,,,,,sub29_AB,001,2026-01-18_21h28.29.450,recognitionstage,,2025.1.1,59.5658601844089,2026-01-18 21h29.53.852019 +0530,
abrupt_videos\abrupt_25.mp4,41,0,44,44,0,,,,,,,,,,0,44,44,27,,,,,1486.6783754000026,,20,Female,Right handed,Corrected to normal,,,,,,,,,,,,,,,,,,,1486.6239975999997,1486.6783754000026,1486.6783754000026,1528.7106974000017,1528.5608579,None,0,1,1528.6966786000012,1528.7106974000017,1486.6783754000026,1531.1981565000024,2.2195576000012807,None,1531.1982478999998,1531.2128011999994,1531.2128011999994,1578.5638467000026,space,47.345896300001186,None,,,,,,,,,,,,,,,,,,,,,,,,,,,,,sub29_AB,001,2026-01-18_21h28.29.450,recognitionstage,,2025.1.1,59.5658601844089,2026-01-18 21h29.53.852019 +0530,
,,,0,0,0,24,frames\Vid24_BB_T.png,frames\Vid24_L.png,['l'],1,[10.49245289999817],[None],5,9.014395500002138,,,,,0,0,0,23,1578.5940268000013,,20,Female,Right handed,Corrected to normal,,,,,,,,,,,,,,,,,,,,,,,,,,,,,,,,,,,,,,,,1578.5862109000009,1578.5940268000013,1578.5940268000013,1578.5940268000013,1578.5940268000013,1578.5940268000013,1578.5940268000013,1589.0977593000025,['l'],1,[10.49245289999817],[None],1589.0989259000016,1589.1123965000006,1589.1123965000006,1589.1123965000006,1598.1296303000017,5,9.014395500002138,5,9.014395500002138,,,,,,,,sub29_AB,001,2026-01-18_21h28.29.450,recognitionstage,,2025.1.1,59.5658601844089,2026-01-18 21h29.53.852019 +0530,
,,,1,1,0,5,frames\Vid5_EM_T.png,frames\Vid5_L.png,['r'],1,[16.964991500000906],[None],5,3.414939599999343,,,,,0,1,1,4,1598.1775536999994,,20,Female,Right handed,Corrected to normal,,,,,,,,,,,,,,,,,,,,,,,,,,,,,,,,,,,,,,,,1598.1663387000008,1598.1775536999994,1598.1775536999994,1598.1775536999994,1598.1775536999994,1598.1775536999994,1598.1775536999994,1615.147524,['r'],1,[16.964991500000906],[None],1615.1486022999998,1615.1624330000013,1615.1624330000013,1615.1624330000013,1618.5797166000011,5,3.414939599999343,5,3.414939599999343,,,,,,,,sub29_AB,001,2026-01-18_21h28.29.450,recognitionstage,,2025.1.1,59.5658601844089,2026-01-18 21h29.53.852019 +0530,
,,,2,2,0,11,frames\Vid11_EM_T.png,frames\Vid11_L.png,['r'],1,[8.330298499997298],[None],5,3.13103780000165,,,,,0,2,2,10,1618.6443446000012,,20,Female,Right handed,Corrected to normal,,,,,,,,,,,,,,,,,,,,,,,,,,,,,,,,,,,,,,,,1618.6384292000002,1618.6443446000012,1618.6443446000012,1618.6443446000012,1618.6443446000012,1618.6443446000012,1618.6443446000012,1626.9805564000017,['r'],1,[8.330298499997298],[None],1626.9817326000011,1626.9955568000005,1626.9955568000005,1626.9955568000005,1630.1300723000022,5,3.13103780000165,5,3.13103780000165,,,,,,,,sub29_AB,001,2026-01-18_21h28.29.450,recognitionstage,,2025.1.1,59.5658601844089,2026-01-18 21h29.53.852019 +0530,
,,,3,3,0,28,frames\Vid28_EM_T.png,frames\Vid28_L.png,['r'],1,[6.906180600002699],[None],5,3.9646162999997614,,,,,0,3,3,27,1630.1643657999994,,20,Female,Right handed,Corrected to normal,,,,,,,,,,,,,,,,,,,,,,,,,,,,,,,,,,,,,,,,1630.1415522999996,1630.1643657999994,1630.1643657999994,1630.1643657999994,1630.1643657999994,1630.1643657999994,1630.1643657999994,1637.0809206000013,['r'],1,[6.906180600002699],[None],1637.0818612000003,1637.0950483000015,1637.0950483000015,1637.0950483000015,1641.0625309999996,5,3.9646162999997614,5,3.9646162999997614,,,,,,,,sub29_AB,001,2026-01-18_21h28.29.450,recognitionstage,,2025.1.1,59.5658601844089,2026-01-18 21h29.53.852019 +0530,
,,,4,4,0,4,frames\Vid4_EM_T.png,frames\Vid4_L.png,['l'],0,[22.613682100000005],[None],5,3.8301013999989664,,,,,0,4,4,3,1641.1292240000002,,20,Female,Right handed,Corrected to normal,,,,,,,,,,,,,,,,,,,,,,,,,,,,,,,,,,,,,,,,1641.1094871999994,1641.1292240000002,1641.1292240000002,1641.1292240000002,1641.1292240000002,1641.1292240000002,1641.1292240000002,1663.7486943000004,['l'],0,[22.613682100000005],[None],1663.7497280999996,1663.761891000002,1663.761891000002,1663.761891000002,1667.595832400002,5,3.8301013999989664,5,3.8301013999989664,,,,,,,,sub29_AB,001,2026-01-18_21h28.29.450,recognitionstage,,2025.1.1,59.5658601844089,2026-01-18 21h29.53.852019 +0530,
,,,5,5,0,21,frames\Vid21_BB_T.png,frames\Vid21_L.png,['r'],1,[9.774970200000098],[None],5,2.7475832999989507,,,,,0,5,5,20,1667.6316122000026,,20,Female,Right handed,Corrected to normal,,,,,,,,,,,,,,,,,,,,,,,,,,,,,,,,,,,,,,,,1667.6090006000013,1667.6316122000026,1667.6316122000026,1667.6316122000026,1667.6316122000026,1667.6316122000026,1667.6316122000026,1677.414513300002,['r'],1,[9.774970200000098],[None],1677.4153351000023,1677.4285765999994,1677.4285765999994,1677.4285765999994,1680.1799071999994,5,2.7475832999989507,5,2.7475832999989507,,,,,,,,sub29_AB,001,2026-01-18_21h28.29.450,recognitionstage,,2025.1.1,59.5658601844089,2026-01-18 21h29.53.852019 +0530,
,,,6,6,0,22,frames\Vid22_EM_T.png,frames\Vid22_L.png,['l'],1,[11.322442300002876],[None],5,3.029919200002041,,,,,0,6,6,21,1680.2120442000014,,20,Female,Right handed,Corrected to normal,,,,,,,,,,,,,,,,,,,,,,,,,,,,,,,,,,,,,,,,1680.1933917000024,1680.2120442000014,1680.2120442000014,1680.2120442000014,1680.2120442000014,1680.2120442000014,1680.2120442000014,1691.5483252000013,['l'],1,[11.322442300002876],[None],1691.5499689999997,1691.5773241999996,1691.5773241999996,1691.5773241999996,1694.5963530000008,5,3.029919200002041,5,3.029919200002041,,,,,,,,sub29_AB,001,2026-01-18_21h28.29.450,recognitionstage,,2025.1.1,59.5658601844089,2026-01-18 21h29.53.852019 +0530,
,,,7,7,0,14,frames\Vid14_BB_T.png,frames\Vid14_L.png,['r'],1,[5.607778900000994],[None],5,3.0799945999970078,,,,,0,7,7,13,1694.6628271000009,,20,Female,Right handed,Corrected to normal,,,,,,,,,,,,,,,,,,,,,,,,,,,,,,,,,,,,,,,,1694.6440743999992,1694.6628271000009,1694.6628271000009,1694.6628271000009,1694.6628271000009,1694.6628271000009,1694.6628271000009,1700.2813631000026,['r'],1,[5.607778900000994],[None],1700.2827268,1700.3107251000001,1700.3107251000001,1700.3107251000001,1703.379533700001,5,3.0799945999970078,5,3.0799945999970078,,,,,,,,sub29_AB,001,2026-01-18_21h28.29.450,recognitionstage,,2025.1.1,59.5658601844089,2026-01-18 21h29.53.852019 +0530,
,,,8,8,0,31,frames\Vid31_EM_T.png,frames\Vid31_L.png,['r'],1,[4.414770800001861],[None],5,3.7480964999995194,,,,,0,8,8,30,1703.3998816000021,,20,Female,Right handed,Corrected to normal,,,,,,,,,,,,,,,,,,,,,,,,,,,,,,,,,,,,,,,,1703.3874561000011,1703.3998816000021,1703.3998816000021,1703.3998816000021,1703.3998816000021,1703.3998816000021,1703.3998816000021,1707.8151500999993,['r'],1,[4.414770800001861],[None],1707.816218,1707.8438260000003,1707.8438260000003,1707.8438260000003,1711.579275,5,3.7480964999995194,5,3.7480964999995194,,,,,,,,sub29_AB,001,2026-01-18_21h28.29.450,recognitionstage,,2025.1.1,59.5658601844089,2026-01-18 21h29.53.852019 +0530,
,,,9,9,0,19,frames\Vid19_BB_T.png,frames\Vid19_L.png,['l'],1,[9.146598699997412],[None],5,2.713926700002048,,,,,0,9,9,18,1711.6118645000024,,20,Female,Right handed,Corrected to normal,,,,,,,,,,,,,,,,,,,,,,,,,,,,,,,,,,,,,,,,1711.5900280999995,1711.6118645000024,1711.6118645000024,1711.6118645000024,1711.6118645000024,1711.6118645000024,1711.6118645000024,1720.7643710000011,['l'],1,[9.146598699997412],[None],1720.765654400002,1720.7784907000023,1720.7784907000023,1720.7784907000023,1723.496934900002,5,2.713926700002048,5,2.713926700002048,,,,,,,,sub29_AB,001,2026-01-18_21h28.29.450,recognitionstage,,2025.1.1,59.5658601844089,2026-01-18 21h29.53.852019 +0530,
,,,10,10,0,8,frames\Vid8_BB_T.png,frames\Vid8_L.png,['l'],0,[71.08478399999876],[None],5,2.6650602999980038,,,,,0,10,10,7,1723.5465132000027,,20,Female,Right handed,Corrected to normal,,,,,,,,,,,,,,,,,,,,,,,,,,,,,,,,,,,,,,,,1723.5356303000008,1723.5465132000027,1723.5465132000027,1723.5465132000027,1723.5465132000027,1723.5465132000027,1723.5465132000027,1794.6469333999994,['l'],0,[71.08478399999876],[None],1794.6478750999995,1794.6625319000013,1794.6625319000013,1794.6625319000013,1797.3295278000005,5,2.6650602999980038,5,2.6650602999980038,,,,,,,,sub29_AB,001,2026-01-18_21h28.29.450,recognitionstage,,2025.1.1,59.5658601844089,2026-01-18 21h29.53.852019 +0530,
,,,11,11,0,33,frames\Vid33_BB_T.png,frames\Vid33_L.png,['l'],1,[6.99251699999877],[None],5,5.298080000000482,,,,,0,11,11,32,1797.350053000002,,20,Female,Right handed,Corrected to normal,,,,,,,,,,,,,,,,,,,,,,,,,,,,,,,,,,,,,,,,1797.3387742000014,1797.350053000002,1797.350053000002,1797.350053000002,1797.350053000002,1797.350053000002,1797.350053000002,1804.3472609000019,['l'],1,[6.99251699999877],[None],1804.3482506,1804.3623060000027,1804.3623060000027,1804.3623060000027,1809.6627337999998,5,5.298080000000482,5,5.298080000000482,,,,,,,,sub29_AB,001,2026-01-18_21h28.29.450,recognitionstage,,2025.1.1,59.5658601844089,2026-01-18 21h29.53.852019 +0530,
,,,12,12,0,40,frames\Vid40_EM_T.png,frames\Vid40_L.png,['l'],1,[4.838490699999966],[None],5,1.4644152000000759,,,,,0,12,12,39,1809.6800975000006,,20,Female,Right handed,Corrected to normal,,,,,,,,,,,,,,,,,,,,,,,,,,,,,,,,,,,,,,,,1809.670099400002,1809.6800975000006,1809.6800975000006,1809.6800975000006,1809.6800975000006,1809.6800975000006,1809.6800975000006,1814.5312950000007,['l'],1,[4.838490699999966],[None],1814.532244500002,1814.5456338000004,1814.5456338000004,1814.5456338000004,1816.0124357999994,5,1.4644152000000759,5,1.4644152000000759,,,,,,,,sub29_AB,001,2026-01-18_21h28.29.450,recognitionstage,,2025.1.1,59.5658601844089,2026-01-18 21h29.53.852019 +0530,
,,,13,13,0,7,frames\Vid7_EM_T.png,frames\Vid7_L.png,['r'],1,[10.527852100000018],[None],5,2.0481142999997246,,,,,0,13,13,6,1816.0626374000021,,20,Female,Right handed,Corrected to normal,,,,,,,,,,,,,,,,,,,,,,,,,,,,,,,,,,,,,,,,1816.0558552000002,1816.0626374000021,1816.0626374000021,1816.0626374000021,1816.0626374000021,1816.0626374000021,1816.0626374000021,1826.5972040000015,['r'],1,[10.527852100000018],[None],1826.5985488000006,1826.6125140000004,1826.6125140000004,1826.6125140000004,1828.662757500002,5,2.0481142999997246,5,2.0481142999997246,,,,,,,,sub29_AB,001,2026-01-18_21h28.29.450,recognitionstage,,2025.1.1,59.5658601844089,2026-01-18 21h29.53.852019 +0530,
,,,14,14,0,15,frames\Vid15_BB_T.png,frames\Vid15_L.png,['r'],1,[14.274580600002082],[None],5,2.9144978000003903,,,,,0,14,14,14,1828.732092000002,,20,Female,Right handed,Corrected to normal,,,,,,,,,,,,,,,,,,,,,,,,,,,,,,,,,,,,,,,,1828.7113009000022,1828.732092000002,1828.732092000002,1828.732092000002,1828.732092000002,1828.732092000002,1828.732092000002,1843.0145143000009,['r'],1,[14.274580600002082],[None],1843.0154895000014,1843.028508200001,1843.028508200001,1843.028508200001,1845.9464929999995,5,2.9144978000003903,5,2.9144978000003903,,,,,,,,sub29_AB,001,2026-01-18_21h28.29.450,recognitionstage,,2025.1.1,59.5658601844089,2026-01-18 21h29.53.852019 +0530,
,,,15,15,0,36,frames\Vid36_BB_T.png,frames\Vid36_L.png,['r'],1,[10.736936799999967],[None],5,1.9143116000013833,,,,,0,15,15,35,1845.9816438000016,,20,Female,Right handed,Corrected to normal,,,,,,,,,,,,,,,,,,,,,,,,,,,,,,,,,,,,,,,,1845.9608125000013,1845.9816438000016,1845.9816438000016,1845.9816438000016,1845.9816438000016,1845.9816438000016,1845.9816438000016,1856.7309602999994,['r'],1,[10.736936799999967],[None],1856.7323103000017,1856.7452575000025,1856.7452575000025,1856.7452575000025,1858.6631444000013,5,1.9143116000013833,5,1.9143116000013833,,,,,,,,sub29_AB,001,2026-01-18_21h28.29.450,recognitionstage,,2025.1.1,59.5658601844089,2026-01-18 21h29.53.852019 +0530,
,,,16,16,0,17,frames\Vid17_BB_T.png,frames\Vid17_L.png,['r'],1,[5.295000199999777],[None],5,1.5980154999997467,,,,,0,16,16,16,1858.695665700001,,20,Female,Right handed,Corrected to normal,,,,,,,,,,,,,,,,,,,,,,,,,,,,,,,,,,,,,,,,1858.6875005000002,1858.695665700001,1858.695665700001,1858.695665700001,1858.695665700001,1858.695665700001,1858.695665700001,1863.997572100001,['r'],1,[5.295000199999777],[None],1863.998634200001,1864.0131492,1864.0131492,1864.0131492,1865.6136444000003,5,1.5980154999997467,5,1.5980154999997467,,,,,,,,sub29_AB,001,2026-01-18_21h28.29.450,recognitionstage,,2025.1.1,59.5658601844089,2026-01-18 21h29.53.852019 +0530,
,,,17,17,0,6,frames\Vid6_BB_T.png,frames\Vid6_L.png,['l'],1,[7.942328199998883],[None],5,1.5140879999999015,,,,,0,17,17,5,1865.6806706999996,,20,Female,Right handed,Corrected to normal,,,,,,,,,,,,,,,,,,,,,,,,,,,,,,,,,,,,,,,,1865.6602217,1865.6806706999996,1865.6806706999996,1865.6806706999996,1865.6806706999996,1865.6806706999996,1865.6806706999996,1873.6312233999997,['l'],1,[7.942328199998883],[None],1873.6323708000018,1873.6452075000016,1873.6452075000016,1873.6452075000016,1875.1630743000023,5,1.5140879999999015,5,1.5140879999999015,,,,,,,,sub29_AB,001,2026-01-18_21h28.29.450,recognitionstage,,2025.1.1,59.5658601844089,2026-01-18 21h29.53.852019 +0530,
,,,18,18,0,26,frames\Vid26_EM_T.png,frames\Vid26_L.png,['r'],1,[9.864075999998022],[None],5,0.847840599999472,,,,,0,18,18,25,1875.1985060000006,,20,Female,Right handed,Corrected to normal,,,,,,,,,,,,,,,,,,,,,,,,,,,,,,,,,,,,,,,,1875.1791498999992,1875.1985060000006,1875.1985060000006,1875.1985060000006,1875.1985060000006,1875.1985060000006,1875.1985060000006,1885.0644113000017,['r'],1,[9.864075999998022],[None],1885.0654264000004,1885.078947500002,1885.078947500002,1885.078947500002,1885.9297775000014,5,0.847840599999472,5,0.847840599999472,,,,,,,,sub29_AB,001,2026-01-18_21h28.29.450,recognitionstage,,2025.1.1,59.5658601844089,2026-01-18 21h29.53.852019 +0530,
,,,19,19,0,1,frames\Vid1_EM_T.png,frames\Vid1_L.png,['r'],1,[7.778114299999288],[None],5,0.8979895999982546,,,,,0,19,19,0,1885.9965778000005,,20,Female,Right handed,Corrected to normal,,,,,,,,,,,,,,,,,,,,,,,,,,,,,,,,,,,,,,,,1885.9771996000018,1885.9965778000005,1885.9965778000005,1885.9965778000005,1885.9965778000005,1885.9965778000005,1885.9965778000005,1893.7811029000004,['r'],1,[7.778114299999288],[None],1893.7822532000027,1893.7952409999998,1893.7952409999998,1893.7952409999998,1894.696509100002,5,0.8979895999982546,5,0.8979895999982546,,,,,,,,sub29_AB,001,2026-01-18_21h28.29.450,recognitionstage,,2025.1.1,59.5658601844089,2026-01-18 21h29.53.852019 +0530,
,,,20,20,0,9,frames\Vid9_EM_T.png,frames\Vid9_L.png,['l'],1,[11.83340070000122],[None],3,3.798145200002182,,,,,0,20,20,8,1894.7491646000017,,20,Female,Right handed,Corrected to normal,,,,,,,,,,,,,,,,,,,,,,,,,,,,,,,,,,,,,,,,1894.735270600002,1894.7491646000017,1894.7491646000017,1894.7491646000017,1894.7491646000017,1894.7491646000017,1894.7491646000017,1906.5981090999994,['l'],1,[11.83340070000122],[None],1906.5991871000006,1906.6119844999994,1906.6119844999994,1906.6119844999994,1910.4129146000014,3,3.798145200002182,3,3.798145200002182,,,,,,,,sub29_AB,001,2026-01-18_21h28.29.450,recognitionstage,,2025.1.1,59.5658601844089,2026-01-18 21h29.53.852019 +0530,
,,,21,21,0,3,frames\Vid3_BB_T.png,frames\Vid3_L.png,['r'],1,[5.517510100002255],[None],5,1.9650908000003255,,,,,0,21,21,2,1910.4650022000023,,20,Female,Right handed,Corrected to normal,,,,,,,,,,,,,,,,,,,,,,,,,,,,,,,,,,,,,,,,1910.4561484000005,1910.4650022000023,1910.4650022000023,1910.4650022000023,1910.4650022000023,1910.4650022000023,1910.4650022000023,1915.9970558000023,['r'],1,[5.517510100002255],[None],1915.9982043000018,1916.0123095000017,1916.0123095000017,1916.0123095000017,1917.9803630000024,5,1.9650908000003255,5,1.9650908000003255,,,,,,,,sub29_AB,001,2026-01-18_21h28.29.450,recognitionstage,,2025.1.1,59.5658601844089,2026-01-18 21h29.53.852019 +0530,
,,,22,22,0,13,frames\Vid13_BB_T.png,frames\Vid13_L.png,['l'],1,[10.566800799999328],[None],5,1.9807914000011806,,,,,0,22,22,12,1918.0318757000023,,20,Female,Right handed,Corrected to normal,,,,,,,,,,,,,,,,,,,,,,,,,,,,,,,,,,,,,,,,1918.016335100001,1918.0318757000023,1918.0318757000023,1918.0318757000023,1918.0318757000023,1918.0318757000023,1918.0318757000023,1928.6152175999996,['l'],1,[10.566800799999328],[None],1928.6162585999991,1928.6442591000014,1928.6442591000014,1928.6442591000014,1930.6128387000026,5,1.9807914000011806,5,1.9807914000011806,,,,,,,,sub29_AB,001,2026-01-18_21h28.29.450,recognitionstage,,2025.1.1,59.5658601844089,2026-01-18 21h29.53.852019 +0530,
,,,23,23,0,23,frames\Vid23_EM_T.png,frames\Vid23_L.png,['r'],1,[3.0384314000002632],[None],5,1.74747319999733,,,,,0,23,23,22,1930.6481509000005,,20,Female,Right handed,Corrected to normal,,,,,,,,,,,,,,,,,,,,,,,,,,,,,,,,,,,,,,,,1930.6301480000002,1930.6481509000005,1930.6481509000005,1930.6481509000005,1930.6481509000005,1930.6481509000005,1930.6481509000005,1933.6984421000016,['r'],1,[3.0384314000002632],[None],1933.6995260000003,1933.7124612000007,1933.7124612000007,1933.7124612000007,1935.4634967999991,5,1.74747319999733,5,1.74747319999733,,,,,,,,sub29_AB,001,2026-01-18_21h28.29.450,recognitionstage,,2025.1.1,59.5658601844089,2026-01-18 21h29.53.852019 +0530,
,,,24,24,0,38,frames\Vid38_EM_T.png,frames\Vid38_L.png,['r'],1,[21.245924099999684],[None],5,1.7654556999987108,,,,,0,24,24,37,1935.4806788999995,,20,Female,Right handed,Corrected to normal,,,,,,,,,,,,,,,,,,,,,,,,,,,,,,,,,,,,,,,,1935.4732490999995,1935.4806788999995,1935.4806788999995,1935.4806788999995,1935.4806788999995,1935.4806788999995,1935.4806788999995,1956.7312593999995,['r'],1,[21.245924099999684],[None],1956.7323529999994,1956.7456217,1956.7456217,1956.7456217,1958.5127262999995,5,1.7654556999987108,5,1.7654556999987108,,,,,,,,sub29_AB,001,2026-01-18_21h28.29.450,recognitionstage,,2025.1.1,59.5658601844089,2026-01-18 21h29.53.852019 +0530,
,,,25,25,0,10,frames\Vid10_BB_T.png,frames\Vid10_L.png,['l'],1,[8.299730400001863],[None],5,1.764921800000593,,,,,0,25,25,9,1958.5628945000026,,20,Female,Right handed,Corrected to normal,,,,,,,,,,,,,,,,,,,,,,,,,,,,,,,,,,,,,,,,1958.5564832000018,1958.5628945000026,1958.5628945000026,1958.5628945000026,1958.5628945000026,1958.5628945000026,1958.5628945000026,1966.8638611000024,['l'],1,[8.299730400001863],[None],1966.8646765000012,1966.878976,1966.878976,1966.878976,1968.6466665000007,5,1.764921800000593,5,1.764921800000593,,,,,,,,sub29_AB,001,2026-01-18_21h28.29.450,recognitionstage,,2025.1.1,59.5658601844089,2026-01-18 21h29.53.852019 +0530,
,,,26,26,0,30,frames\Vid30_EM_T.png,frames\Vid30_L.png,['r'],1,[6.259499899999355],[None],5,1.4151854000010644,,,,,0,26,26,29,1968.6671645000024,,20,Female,Right handed,Corrected to normal,,,,,,,,,,,,,,,,,,,,,,,,,,,,,,,,,,,,,,,,1968.6558024000005,1968.6671645000024,1968.6671645000024,1968.6671645000024,1968.6671645000024,1968.6671645000024,1968.6671645000024,1974.9310244000008,['r'],1,[6.259499899999355],[None],1974.9324097000026,1974.9456062999998,1974.9456062999998,1974.9456062999998,1976.3633212999994,5,1.4151854000010644,5,1.4151854000010644,,,,,,,,sub29_AB,001,2026-01-18_21h28.29.450,recognitionstage,,2025.1.1,59.5658601844089,2026-01-18 21h29.53.852019 +0530,
,,,27,27,0,25,frames\Vid25_BB_T.png,frames\Vid25_L.png,['l'],1,[12.259122999999818],[None],5,1.3484704999973474,,,,,0,27,27,24,1976.3954938999996,,20,Female,Right handed,Corrected to normal,,,,,,,,,,,,,,,,,,,,,,,,,,,,,,,,,,,,,,,,1976.3753883999998,1976.3954938999996,1976.3954938999996,1976.3954938999996,1976.3954938999996,1976.3954938999996,1976.3954938999996,1988.6638877000005,['l'],1,[12.259122999999818],[None],1988.6647866000021,1988.6789733000005,1988.6789733000005,1988.6789733000005,1990.0296154999996,5,1.3484704999973474,5,1.3484704999973474,,,,,,,,sub29_AB,001,2026-01-18_21h28.29.450,recognitionstage,,2025.1.1,59.5658601844089,2026-01-18 21h29.53.852019 +0530,
,,,28,28,0,32,frames\Vid32_EM_T.png,frames\Vid32_L.png,['r'],1,[5.072590700001456],[None],5,1.330925099999149,,,,,0,28,28,31,1990.0619832000011,,20,Female,Right handed,Corrected to normal,,,,,,,,,,,,,,,,,,,,,,,,,,,,,,,,,,,,,,,,1990.043226400001,1990.0619832000011,1990.0619832000011,1990.0619832000011,1990.0619832000011,1990.0619832000011,1990.0619832000011,1995.1481534000013,['r'],1,[5.072590700001456],[None],1995.1493625000003,1995.1618701000007,1995.1618701000007,1995.1618701000007,1996.4958855000004,5,1.330925099999149,5,1.330925099999149,,,,,,,,sub29_AB,001,2026-01-18_21h28.29.450,recognitionstage,,2025.1.1,59.5658601844089,2026-01-18 21h29.53.852019 +0530,
,,,29,29,0,16,frames\Vid16_EM_T.png,frames\Vid16_L.png,['l'],1,[19.46055350000097],[None],4,4.132953399999678,,,,,0,29,29,15,1996.5463132000004,,20,Female,Right handed,Corrected to normal,,,,,,,,,,,,,,,,,,,,,,,,,,,,,,,,,,,,,,,,1996.5368399,1996.5463132000004,1996.5463132000004,1996.5463132000004,1996.5463132000004,1996.5463132000004,1996.5463132000004,2016.0134040000012,['l'],1,[19.46055350000097],[None],2016.014169500002,2016.029019900001,2016.029019900001,2016.029019900001,2020.1629702000027,4,4.132953399999678,4,4.132953399999678,,,,,,,,sub29_AB,001,2026-01-18_21h28.29.450,recognitionstage,,2025.1.1,59.5658601844089,2026-01-18 21h29.53.852019 +0530,
,,,30,30,0,35,frames\Vid35_EM_T.png,frames\Vid35_L.png,['r'],1,[4.063378700000612],[None],5,1.1316468000004534,,,,,0,30,30,34,2020.1832405000023,,20,Female,Right handed,Corrected to normal,,,,,,,,,,,,,,,,,,,,,,,,,,,,,,,,,,,,,,,,2020.1730898000023,2020.1832405000023,2020.1832405000023,2020.1832405000023,2020.1832405000023,2020.1832405000023,2020.1832405000023,2024.2477196,['r'],1,[4.063378700000612],[None],2024.248842500001,2024.2621801999994,2024.2621801999994,2024.2621801999994,2025.3963487,5,1.1316468000004534,5,1.1316468000004534,,,,,,,,sub29_AB,001,2026-01-18_21h28.29.450,recognitionstage,,2025.1.1,59.5658601844089,2026-01-18 21h29.53.852019 +0530,
,,,31,31,0,39,frames\Vid39_BB_T.png,frames\Vid39_L.png,['l'],1,[55.50483180000083],[None],2,3.4144567000003008,,,,,0,31,31,38,2025.4138132000007,,20,Female,Right handed,Corrected to normal,,,,,,,,,,,,,,,,,,,,,,,,,,,,,,,,,,,,,,,,2025.4036235000021,2025.4138132000007,2025.4138132000007,2025.4138132000007,2025.4138132000007,2025.4138132000007,2025.4138132000007,2080.9310339000003,['l'],1,[55.50483180000083],[None],2080.9319552000015,2080.945169800001,2080.945169800001,2080.945169800001,2084.363021500001,2,3.4144567000003008,2,3.4144567000003008,,,,,,,,sub29_AB,001,2026-01-18_21h28.29.450,recognitionstage,,2025.1.1,59.5658601844089,2026-01-18 21h29.53.852019 +0530,
,,,32,32,0,2,frames\Vid2_BB_T.png,frames\Vid2_L.png,['r'],1,[6.250246899999183],[None],5,1.9632235999997647,,,,,0,32,32,1,2084.4123446000012,,20,Female,Right handed,Corrected to normal,,,,,,,,,,,,,,,,,,,,,,,,,,,,,,,,,,,,,,,,2084.4061297000007,2084.4123446000012,2084.4123446000012,2084.4123446000012,2084.4123446000012,2084.4123446000012,2084.4123446000012,2090.6652453999995,['r'],1,[6.250246899999183],[None],2090.666456499999,2090.6935859000005,2090.6935859000005,2090.6935859000005,2092.6465972000005,5,1.9632235999997647,5,1.9632235999997647,,,,,,,,sub29_AB,001,2026-01-18_21h28.29.450,recognitionstage,,2025.1.1,59.5658601844089,2026-01-18 21h29.53.852019 +0530,
,,,33,33,0,18,frames\Vid18_EM_T.png,frames\Vid18_L.png,['r'],1,[5.476786600000196],[None],5,1.5293176000013773,,,,,0,33,33,17,2092.682004000002,,20,Female,Right handed,Corrected to normal,,,,,,,,,,,,,,,,,,,,,,,,,,,,,,,,,,,,,,,,2092.659152100001,2092.682004000002,2092.682004000002,2092.682004000002,2092.682004000002,2092.682004000002,2092.682004000002,2098.1660076000007,['r'],1,[5.476786600000196],[None],2098.1673319,2098.1784547999996,2098.1784547999996,2098.1784547999996,2099.712816700001,5,1.5293176000013773,5,1.5293176000013773,,,,,,,,sub29_AB,001,2026-01-18_21h28.29.450,recognitionstage,,2025.1.1,59.5658601844089,2026-01-18 21h29.53.852019 +0530,
,,,34,34,0,20,frames\Vid20_EM_T.png,frames\Vid20_L.png,['l'],1,[6.083859999998822],[None],5,1.7470365000008314,,,,,0,34,34,19,2099.730890400002,,20,Female,Right handed,Corrected to normal,,,,,,,,,,,,,,,,,,,,,,,,,,,,,,,,,,,,,,,,2099.7202063000004,2099.730890400002,2099.730890400002,2099.730890400002,2099.730890400002,2099.730890400002,2099.730890400002,2105.831879000001,['l'],1,[6.083859999998822],[None],2105.8330349999997,2105.860790400002,2105.860790400002,2105.860790400002,2107.5961186999994,5,1.7470365000008314,5,1.7470365000008314,,,,,,,,sub29_AB,001,2026-01-18_21h28.29.450,recognitionstage,,2025.1.1,59.5658601844089,2026-01-18 21h29.53.852019 +0530,
,,,35,35,0,29,frames\Vid29_BB_T.png,frames\Vid29_L.png,['l'],1,[5.154185700001108],[None],5,1.0814377000024251,,,,,0,35,35,28,2107.6284941000013,,20,Female,Right handed,Corrected to normal,,,,,,,,,,,,,,,,,,,,,,,,,,,,,,,,,,,,,,,,2107.6068739,2107.6284941000013,2107.6284941000013,2107.6284941000013,2107.6284941000013,2107.6284941000013,2107.6284941000013,2112.7973659000018,['l'],1,[5.154185700001108],[None],2112.7987025,2112.812973600001,2112.812973600001,2112.812973600001,2113.896089400001,5,1.0814377000024251,5,1.0814377000024251,,,,,,,,sub29_AB,001,2026-01-18_21h28.29.450,recognitionstage,,2025.1.1,59.5658601844089,2026-01-18 21h29.53.852019 +0530,
,,,36,36,0,34,frames\Vid34_BB_T.png,frames\Vid34_L.png,['l'],1,[5.924402500000724],[None],5,2.030392299999221,,,,,0,36,36,33,2113.9142176000023,,20,Female,Right handed,Corrected to normal,,,,,,,,,,,,,,,,,,,,,,,,,,,,,,,,,,,,,,,,2113.905353599999,2113.9142176000023,2113.9142176000023,2113.9142176000023,2113.9142176000023,2113.9142176000023,2113.9142176000023,2119.848385600002,['l'],1,[5.924402500000724],[None],2119.8495764,2119.8619327000015,2119.8619327000015,2119.8619327000015,2121.895918800001,5,2.030392299999221,5,2.030392299999221,,,,,,,,sub29_AB,001,2026-01-18_21h28.29.450,recognitionstage,,2025.1.1,59.5658601844089,2026-01-18 21h29.53.852019 +0530,
,,,37,37,0,37,frames\Vid37_BB_T.png,frames\Vid37_L.png,['l'],1,[4.3737409000023035],[None],5,1.798494100003154,,,,,0,37,37,36,2121.928805800002,,20,Female,Right handed,Corrected to normal,,,,,,,,,,,,,,,,,,,,,,,,,,,,,,,,,,,,,,,,2121.9067899,2121.928805800002,2121.928805800002,2121.928805800002,2121.928805800002,2121.928805800002,2121.928805800002,2126.3143342000003,['l'],1,[4.3737409000023035],[None],2126.315212900001,2126.3286602000007,2126.3286602000007,2126.3286602000007,2128.129204500001,5,1.798494100003154,5,1.798494100003154,,,,,,,,sub29_AB,001,2026-01-18_21h28.29.450,recognitionstage,,2025.1.1,59.5658601844089,2026-01-18 21h29.53.852019 +0530,
,,,38,38,0,27,frames\Vid27_BB_T.png,frames\Vid27_L.png,['r'],1,[9.69104470000093],[None],5,1.5807401000020036,,,,,0,38,38,26,2128.147706399999,,20,Female,Right handed,Corrected to normal,,,,,,,,,,,,,,,,,,,,,,,,,,,,,,,,,,,,,,,,2128.137555000001,2128.147706399999,2128.147706399999,2128.147706399999,2128.147706399999,2128.147706399999,2128.147706399999,2137.8476835,['r'],1,[9.69104470000093],[None],2137.8487403,2137.8618075000013,2137.8618075000013,2137.8618075000013,2139.446207600002,5,1.5807401000020036,5,1.5807401000020036,,,,,,,,sub29_AB,001,2026-01-18_21h28.29.450,recognitionstage,,2025.1.1,59.5658601844089,2026-01-18 21h29.53.852019 +0530,
,,,39,39,0,12,frames\Vid12_EM_T.png,frames\Vid12_L.png,['r'],1,[4.326618300001428],[None],5,1.5823025999998208,,,,,0,39,39,11,2139.495884600001,,20,Female,Right handed,Corrected to normal,,,,,,,,,,,,,,,,,,,,,,,,,,,,,,,,,,,,,,,,2139.489642100001,2139.495884600001,2139.495884600001,2139.495884600001,2139.495884600001,2139.495884600001,2139.495884600001,2143.830121400002,['r'],1,[4.326618300001428],[None],2143.8310039999997,2143.8456902,2143.8456902,2143.8456902,2145.429013500001,5,1.5823025999998208,5,1.5823025999998208,,,,,,,,sub29_AB,001,2026-01-18_21h28.29.450,recognitionstage,,2025.1.1,59.5658601844089,2026-01-18 21h29.53.852019 +0530,
,,,,,,,,,,,,,,,,,,,,,,,,,20,Female,Right handed,Corrected to normal,,,,,,,,,,,,,,,,,,,,,,,,,,,,,,,,,,,,,,,,,,,,,,,,,,,,,,,,,,,,,2145.4290882000023,2145.4460794000006,2145.4460794000006,2148.8144753000015,space,3.352510800003074,None,sub29_AB,001,2026-01-18_21h28.29.450,recognitionstage,,2025.1.1,59.5658601844089,2026-01-18 21h29.53.852019 +0530,
