path,duration,is_repeat,thisN,thisTrialN,thisRepN,movie_id,target_img,lure_img,resp.keys,resp.corr,resp.rt,resp.duration,conf_radio.response,conf_radio.rt,movie.thisRepN,movie.thisTrialN,movie.thisN,movie.thisIndex,recogloop.thisRepN,recogloop.thisTrialN,recogloop.thisN,recogloop.thisIndex,thisRow.t,notes,age,gender,handedness,vision,caffeine_2h,alcohol_smoke_12h,demographics.started,demographics.stopped,Instructions.started,text1.started,key_resp.started,Instructions.stopped,key_resp.keys,key_resp.rt,key_resp.duration,instruction_2.started,text2.started,key_resp_2.started,instruction_2.stopped,key_resp_2.keys,key_resp_2.rt,key_resp_2.duration,Videos.started,movie_2.started,vigilance_resp.started,movie_2.stopped,Videos.stopped,movie.vigilance_resp.keys,vigilance_pressed,vigilance_correct,ISI.started,text.started,ISI.stopped,text.stopped,movie.vigilance_resp.rt,movie.vigilance_resp.duration,recognition.started,text_4.started,key_resp_3.started,recognition.stopped,key_resp_3.keys,key_resp_3.rt,key_resp_3.duration,recognition_task.started,leftimage.started,rightimage.started,resp.started,frames_question.started,right_label.started,left_label.started,recognition_task.stopped,recogloop.resp.keys,recogloop.resp.corr,recogloop.resp.rt,recogloop.resp.duration,confidence.started,conf_text.started,conf_radio.started,conf_label.started,confidence.stopped,recogloop.conf_radio.response,recogloop.conf_radio.rt,confidence,confidence_rt,thank_you.started,text_6.started,key_resp_4.started,thank_you.stopped,key_resp_4.keys,participant,session,date,expName,expVersion,psychopyVersion,frameRate,expStart,...103
,,,,,,,,,,,,,,,,,,,,,,,,,21,Female,Right handed,Normal,Caffeine consumed in last 2 hours?,Alcohol or smoking in last 12 hours?,0.011159499999848776,0.013518600000679726,,,,,,,,,,,,,,,,,,,,,,,,,,,,,,,,,,,,,,,,,,,,,,,,,,,,,,,,,,,,,,sub23_AB,001,2026-01-18_17h24.57.466,recognitionstage,,2025.1.1,59.96055794480673,2026-01-18 17h26.24.506983 +0530,
,,,,,,,,,,,,,,,,,,,,,,,,,21,Female,Right handed,Normal,,,,,0.013539600000513019,0.029374300000199582,0.029374300000199582,8.647146400000565,space,8.603594100000919,None,,,,,,,,,,,,,,,,,,,,,,,,,,,,,,,,,,,,,,,,,,,,,,,,,,,,,,,sub23_AB,001,2026-01-18_17h24.57.466,recognitionstage,,2025.1.1,59.96055794480673,2026-01-18 17h26.24.506983 +0530,
,,,,,,,,,,,,,,,,,,,,,,,,,21,Female,Right handed,Normal,,,,,,,,,,,,8.647190400000909,8.663607000000411,8.663607000000411,16.59826819999944,space,7.929474999999002,None,,,,,,,,,,,,,,,,,,,,,,,,,,,,,,,,,,,,,,,,,,,,,,,,sub23_AB,001,2026-01-18_17h24.57.466,recognitionstage,,2025.1.1,59.96055794480673,2026-01-18 17h26.24.506983 +0530,
abrupt_videos\abrupt_14.mp4,22,0,44,44,0,,,,,,,,,,0,44,44,15,,,,,1512.9126472000007,,21,Female,Right handed,Normal,,,,,,,,,,,,,,,,,,,1512.8559081000003,1512.9126472000007,1512.9126472000007,1536.111934300001,1535.9560913999994,None,0,1,1536.0920506000002,1536.111934300001,1538.5985988000011,1465.329002800001,9.647627199999988,None,1538.5986878000003,1538.6130981999995,1538.6130981999995,1554.5478631000005,space,15.93231730000116,None,,,,,,,,,,,,,,,,,,,,,,,,,,,sub23_AB,001,2026-01-18_17h24.57.466,recognitionstage,,2025.1.1,59.96055794480673,2026-01-18 17h26.24.506983 +0530,
,,,0,0,0,15,frames\Vid15_BB_T.png,frames\Vid15_L.png,['l'],1,[11.061475000000428],[None],5,5.68314829999872,,,,,0,0,0,14,1554.6115996000008,,21,Female,Right handed,Normal,,,,,,,,,,,,,,,,,,,,,,,,,,,,,,,,,,,,,,,,1554.6040864999995,1554.6115996000008,1554.6115996000008,1554.6115996000008,1554.6115996000008,1554.6115996000008,1554.6115996000008,1565.6805998,['l'],1,[11.061475000000428],[None],1565.6815124000004,1565.6961403000005,1565.6961403000005,1565.6961403000005,1571.3795926000003,5,5.68314829999872,5,5.68314829999872,,,,,,sub23_AB,001,2026-01-18_17h24.57.466,recognitionstage,,2025.1.1,59.96055794480673,2026-01-18 17h26.24.506983 +0530,
,,,1,1,0,27,frames\Vid27_BB_T.png,frames\Vid27_L.png,['l'],1,[4.916664100001071],[None],5,2.397401500000342,,,,,0,1,1,26,1571.4284417,,21,Female,Right handed,Normal,,,,,,,,,,,,,,,,,,,,,,,,,,,,,,,,,,,,,,,,1571.4107961000009,1571.4284417,1571.4284417,1571.4284417,1571.4284417,1571.4284417,1571.4284417,1576.3484712999998,['l'],1,[4.916664100001071],[None],1576.3492903999995,1576.377538300001,1576.377538300001,1576.377538300001,1578.7642329999999,5,2.397401500000342,5,2.397401500000342,,,,,,sub23_AB,001,2026-01-18_17h24.57.466,recognitionstage,,2025.1.1,59.96055794480673,2026-01-18 17h26.24.506983 +0530,
,,,2,2,0,32,frames\Vid32_EM_T.png,frames\Vid32_L.png,['l'],1,[3.8848724999988917],[None],5,1.2158663000009255,,,,,0,2,2,31,1578.7961271000004,,21,Female,Right handed,Normal,,,,,,,,,,,,,,,,,,,,,,,,,,,,,,,,,,,,,,,,1578.7784998000006,1578.7961271000004,1578.7961271000004,1578.7961271000004,1578.7961271000004,1578.7961271000004,1578.7961271000004,1582.6975433000007,['l'],1,[3.8848724999988917],[None],1582.6985901999997,1582.712947,1582.712947,1582.712947,1583.9297697000002,5,1.2158663000009255,5,1.2158663000009255,,,,,,sub23_AB,001,2026-01-18_17h24.57.466,recognitionstage,,2025.1.1,59.96055794480673,2026-01-18 17h26.24.506983 +0530,
,,,3,3,0,16,frames\Vid16_EM_T.png,frames\Vid16_L.png,['r'],0,[4.356557999999495],[None],5,1.3822450000006938,,,,,0,3,3,15,1583.9804318000006,,21,Female,Right handed,Normal,,,,,,,,,,,,,,,,,,,,,,,,,,,,,,,,,,,,,,,,1583.9712479999998,1583.9804318000006,1583.9804318000006,1583.9804318000006,1583.9804318000006,1583.9804318000006,1583.9804318000006,1588.3475902999999,['r'],0,[4.356557999999495],[None],1588.3484423999998,1588.363090500001,1588.363090500001,1588.363090500001,1589.7462840000007,5,1.3822450000006938,5,1.3822450000006938,,,,,,sub23_AB,001,2026-01-18_17h24.57.466,recognitionstage,,2025.1.1,59.96055794480673,2026-01-18 17h26.24.506983 +0530,
,,,4,4,0,2,frames\Vid2_BB_T.png,frames\Vid2_L.png,['l'],1,[4.536981799999921],[None],5,1.2474261000006663,,,,,0,4,4,1,1589.8161493999996,,21,Female,Right handed,Normal,,,,,,,,,,,,,,,,,,,,,,,,,,,,,,,,,,,,,,,,1589.790777100001,1589.8161493999996,1589.8161493999996,1589.8161493999996,1589.8161493999996,1589.8161493999996,1589.8161493999996,1594.3651286000004,['l'],1,[4.536981799999921],[None],1594.3658522000005,1594.3792876999996,1594.3792876999996,1594.3792876999996,1595.6301162,5,1.2474261000006663,5,1.2474261000006663,,,,,,sub23_AB,001,2026-01-18_17h24.57.466,recognitionstage,,2025.1.1,59.96055794480673,2026-01-18 17h26.24.506983 +0530,
,,,5,5,0,18,frames\Vid18_EM_T.png,frames\Vid18_L.png,['l'],1,[6.719355000001087],[None],3,2.3154699000006076,,,,,0,5,5,17,1595.6656194000007,,21,Female,Right handed,Normal,,,,,,,,,,,,,,,,,,,,,,,,,,,,,,,,,,,,,,,,1595.6420290999995,1595.6656194000007,1595.6656194000007,1595.6656194000007,1595.6656194000007,1595.6656194000007,1595.6656194000007,1602.3980465999994,['l'],1,[6.719355000001087],[None],1602.3991000000005,1602.4127386,1602.4127386,1602.4127386,1604.729786400001,3,2.3154699000006076,3,2.3154699000006076,,,,,,sub23_AB,001,2026-01-18_17h24.57.466,recognitionstage,,2025.1.1,59.96055794480673,2026-01-18 17h26.24.506983 +0530,
,,,6,6,0,9,frames\Vid9_EM_T.png,frames\Vid9_L.png,['r'],1,[2.396713099999033],[None],5,1.3637627000007342,,,,,0,6,6,8,1604.7803509000005,,21,Female,Right handed,Normal,,,,,,,,,,,,,,,,,,,,,,,,,,,,,,,,,,,,,,,,1604.7679516000007,1604.7803509000005,1604.7803509000005,1604.7803509000005,1604.7803509000005,1604.7803509000005,1604.7803509000005,1607.1820477,['r'],1,[2.396713099999033],[None],1607.1833652000005,1607.1964822999998,1607.1964822999998,1607.1964822999998,1608.5633383999993,5,1.3637627000007342,5,1.3637627000007342,,,,,,sub23_AB,001,2026-01-18_17h24.57.466,recognitionstage,,2025.1.1,59.96055794480673,2026-01-18 17h26.24.506983 +0530,
,,,7,7,0,10,frames\Vid10_BB_T.png,frames\Vid10_L.png,['l'],0,[6.352451300001121],[None],3,1.281473700000788,,,,,0,7,7,9,1608.632548200001,,21,Female,Right handed,Normal,,,,,,,,,,,,,,,,,,,,,,,,,,,,,,,,,,,,,,,,1608.6129326999999,1608.632548200001,1608.632548200001,1608.632548200001,1608.632548200001,1608.632548200001,1608.632548200001,1614.998233800001,['l'],0,[6.352451300001121],[None],1614.9995509,1615.0130076999994,1615.0130076999994,1615.0130076999994,1616.2970578000004,3,1.281473700000788,3,1.281473700000788,,,,,,sub23_AB,001,2026-01-18_17h24.57.466,recognitionstage,,2025.1.1,59.96055794480673,2026-01-18 17h26.24.506983 +0530,
,,,8,8,0,3,frames\Vid3_BB_T.png,frames\Vid3_L.png,['r'],1,[5.0437394000000495],[None],5,0.9621764999992592,,,,,0,8,8,2,1616.3495571000003,,21,Female,Right handed,Normal,,,,,,,,,,,,,,,,,,,,,,,,,,,,,,,,,,,,,,,,1616.3394308000006,1616.3495571000003,1616.3495571000003,1616.3495571000003,1616.3495571000003,1616.3495571000003,1616.3495571000003,1621.400219700001,['r'],1,[5.0437394000000495],[None],1621.4016711000004,1621.4122707000006,1621.4122707000006,1621.4122707000006,1622.3797345000003,5,0.9621764999992592,5,0.9621764999992592,,,,,,sub23_AB,001,2026-01-18_17h24.57.466,recognitionstage,,2025.1.1,59.96055794480673,2026-01-18 17h26.24.506983 +0530,
,,,9,9,0,24,frames\Vid24_BB_T.png,frames\Vid24_L.png,['l'],1,[3.3614027999992686],[None],4,1.282172700000956,,,,,0,9,9,23,1622.4155050999998,,21,Female,Right handed,Normal,,,,,,,,,,,,,,,,,,,,,,,,,,,,,,,,,,,,,,,,1622.3927939000005,1622.4155050999998,1622.4155050999998,1622.4155050999998,1622.4155050999998,1622.4155050999998,1622.4155050999998,1625.7806872,['l'],1,[3.3614027999992686],[None],1625.7814775000006,1625.7961687999996,1625.7961687999996,1625.7961687999996,1627.0795634000006,4,1.282172700000956,4,1.282172700000956,,,,,,sub23_AB,001,2026-01-18_17h24.57.466,recognitionstage,,2025.1.1,59.96055794480673,2026-01-18 17h26.24.506983 +0530,
,,,10,10,0,28,frames\Vid28_EM_T.png,frames\Vid28_L.png,['r'],1,[5.4070158999984415],[None],5,1.515721300000223,,,,,0,10,10,27,1627.0981615,,21,Female,Right handed,Normal,,,,,,,,,,,,,,,,,,,,,,,,,,,,,,,,,,,,,,,,1627.0892547000003,1627.0981615,1627.0981615,1627.0981615,1627.0981615,1627.0981615,1627.0981615,1632.5143614999997,['r'],1,[5.4070158999984415],[None],1632.5153014999996,1632.5294816000005,1632.5294816000005,1632.5294816000005,1634.0463070000005,5,1.515721300000223,5,1.515721300000223,,,,,,sub23_AB,001,2026-01-18_17h24.57.466,recognitionstage,,2025.1.1,59.96055794480673,2026-01-18 17h26.24.506983 +0530,
,,,11,11,0,13,frames\Vid13_BB_T.png,frames\Vid13_L.png,['l'],0,[8.816493000000264],[None],2,2.1305402999987564,,,,,0,11,11,12,1634.0965897000005,,21,Female,Right handed,Normal,,,,,,,,,,,,,,,,,,,,,,,,,,,,,,,,,,,,,,,,1634.080127700001,1634.0965897000005,1634.0965897000005,1634.0965897000005,1634.0965897000005,1634.0965897000005,1634.0965897000005,1642.9155093000008,['l'],0,[8.816493000000264],[None],1642.9165059999996,1642.929207000001,1642.929207000001,1642.929207000001,1645.0629645000008,2,2.1305402999987564,2,2.1305402999987564,,,,,,sub23_AB,001,2026-01-18_17h24.57.466,recognitionstage,,2025.1.1,59.96055794480673,2026-01-18 17h26.24.506983 +0530,
,,,12,12,0,1,frames\Vid1_EM_T.png,frames\Vid1_L.png,['l'],1,[5.059997600001225],[None],5,1.2818526000010024,,,,,0,12,12,0,1645.1330665000005,,21,Female,Right handed,Normal,,,,,,,,,,,,,,,,,,,,,,,,,,,,,,,,,,,,,,,,1645.1110212000003,1645.1330665000005,1645.1330665000005,1645.1330665000005,1645.1330665000005,1645.1330665000005,1645.1330665000005,1650.1977293,['l'],1,[5.059997600001225],[None],1650.1985587,1650.2128814999996,1650.2128814999996,1650.2128814999996,1651.4967297000003,5,1.2818526000010024,5,1.2818526000010024,,,,,,sub23_AB,001,2026-01-18_17h24.57.466,recognitionstage,,2025.1.1,59.96055794480673,2026-01-18 17h26.24.506983 +0530,
,,,13,13,0,14,frames\Vid14_BB_T.png,frames\Vid14_L.png,['l'],1,[3.5387635999995837],[None],5,0.9307305000002088,,,,,0,13,13,13,1651.5663308000003,,21,Female,Right handed,Normal,,,,,,,,,,,,,,,,,,,,,,,,,,,,,,,,,,,,,,,,1651.5423520000004,1651.5663308000003,1651.5663308000003,1651.5663308000003,1651.5663308000003,1651.5663308000003,1651.5663308000003,1655.1152760999994,['l'],1,[3.5387635999995837],[None],1655.1164143999995,1655.1291192999997,1655.1291192999997,1655.1291192999997,1656.0629516000008,5,0.9307305000002088,5,0.9307305000002088,,,,,,sub23_AB,001,2026-01-18_17h24.57.466,recognitionstage,,2025.1.1,59.96055794480673,2026-01-18 17h26.24.506983 +0530,
,,,14,14,0,4,frames\Vid4_EM_T.png,frames\Vid4_L.png,['l'],1,[4.100274000000354],[None],5,1.1457554000007804,,,,,0,14,14,3,1656.1329258000005,,21,Female,Right handed,Normal,,,,,,,,,,,,,,,,,,,,,,,,,,,,,,,,,,,,,,,,1656.1103433000007,1656.1329258000005,1656.1329258000005,1656.1329258000005,1656.1329258000005,1656.1329258000005,1656.1329258000005,1660.2498068000004,['l'],1,[4.100274000000354],[None],1660.2513087000007,1660.2624847999996,1660.2624847999996,1660.2624847999996,1661.4134938000007,5,1.1457554000007804,5,1.1457554000007804,,,,,,sub23_AB,001,2026-01-18_17h24.57.466,recognitionstage,,2025.1.1,59.96055794480673,2026-01-18 17h26.24.506983 +0530,
,,,15,15,0,25,frames\Vid25_BB_T.png,frames\Vid25_L.png,['r'],0,[10.151967600000717],[None],3,1.94990819999839,,,,,0,15,15,24,1661.4489611000008,,21,Female,Right handed,Normal,,,,,,,,,,,,,,,,,,,,,,,,,,,,,,,,,,,,,,,,1661.4242094,1661.4489611000008,1661.4489611000008,1661.4489611000008,1661.4489611000008,1661.4489611000008,1661.4489611000008,1671.6136655999999,['r'],0,[10.151967600000717],[None],1671.6141974000002,1671.6299622999995,1671.6299622999995,1671.6299622999995,1673.5803434999998,3,1.94990819999839,3,1.94990819999839,,,,,,sub23_AB,001,2026-01-18_17h24.57.466,recognitionstage,,2025.1.1,59.96055794480673,2026-01-18 17h26.24.506983 +0530,
,,,16,16,0,26,frames\Vid26_EM_T.png,frames\Vid26_L.png,['r'],1,[2.308508099999017],[None],5,1.2301162000003387,,,,,0,16,16,25,1673.6125759999995,,21,Female,Right handed,Normal,,,,,,,,,,,,,,,,,,,,,,,,,,,,,,,,,,,,,,,,1673.5960233999995,1673.6125759999995,1673.6125759999995,1673.6125759999995,1673.6125759999995,1673.6125759999995,1673.6125759999995,1675.9329046000003,['r'],1,[2.308508099999017],[None],1675.9339461,1675.945899800001,1675.945899800001,1675.945899800001,1677.1800335999997,5,1.2301162000003387,5,1.2301162000003387,,,,,,sub23_AB,001,2026-01-18_17h24.57.466,recognitionstage,,2025.1.1,59.96055794480673,2026-01-18 17h26.24.506983 +0530,
,,,17,17,0,39,frames\Vid39_BB_T.png,frames\Vid39_L.png,['r'],1,[4.138613799999803],[None],2,1.8479009999991831,,,,,0,17,17,38,1677.198384700001,,21,Female,Right handed,Normal,,,,,,,,,,,,,,,,,,,,,,,,,,,,,,,,,,,,,,,,1677.1883455999996,1677.198384700001,1677.198384700001,1677.198384700001,1677.198384700001,1677.198384700001,1677.198384700001,1681.3483225,['r'],1,[4.138613799999803],[None],1681.3494057000007,1681.3630486000002,1681.3630486000002,1681.3630486000002,1683.2131611000004,2,1.8479009999991831,2,1.8479009999991831,,,,,,sub23_AB,001,2026-01-18_17h24.57.466,recognitionstage,,2025.1.1,59.96055794480673,2026-01-18 17h26.24.506983 +0530,
,,,18,18,0,7,frames\Vid7_EM_T.png,frames\Vid7_L.png,['r'],1,[3.3283627000000706],[None],4,1.5974742999987939,,,,,0,18,18,6,1683.2805927000009,,21,Female,Right handed,Normal,,,,,,,,,,,,,,,,,,,,,,,,,,,,,,,,,,,,,,,,1683.2581315999996,1683.2805927000009,1683.2805927000009,1683.2805927000009,1683.2805927000009,1683.2805927000009,1683.2805927000009,1686.6148460999993,['r'],1,[3.3283627000000706],[None],1686.6160022000004,1686.629585300001,1686.629585300001,1686.629585300001,1688.2302383000006,4,1.5974742999987939,4,1.5974742999987939,,,,,,sub23_AB,001,2026-01-18_17h24.57.466,recognitionstage,,2025.1.1,59.96055794480673,2026-01-18 17h26.24.506983 +0530,
,,,19,19,0,30,frames\Vid30_EM_T.png,frames\Vid30_L.png,['l'],1,[3.391887699999643],[None],2,0.8818616999997175,,,,,0,19,19,29,1688.2651349000007,,21,Female,Right handed,Normal,,,,,,,,,,,,,,,,,,,,,,,,,,,,,,,,,,,,,,,,1688.242049800001,1688.2651349000007,1688.2651349000007,1688.2651349000007,1688.2651349000007,1688.2651349000007,1688.2651349000007,1691.6643820999998,['l'],1,[3.391887699999643],[None],1691.6655076000006,1691.6796967999999,1691.6796967999999,1691.6796967999999,1692.5630727000007,2,0.8818616999997175,2,0.8818616999997175,,,,,,sub23_AB,001,2026-01-18_17h24.57.466,recognitionstage,,2025.1.1,59.96055794480673,2026-01-18 17h26.24.506983 +0530,
,,,20,20,0,40,frames\Vid40_EM_T.png,frames\Vid40_L.png,['r'],1,[4.859682000000248],[None],1,0.8819192999999359,,,,,0,20,20,39,1692.5813503999998,,21,Female,Right handed,Normal,,,,,,,,,,,,,,,,,,,,,,,,,,,,,,,,,,,,,,,,1692.5709387999996,1692.5813503999998,1692.5813503999998,1692.5813503999998,1692.5813503999998,1692.5813503999998,1692.5813503999998,1697.4479446000005,['r'],1,[4.859682000000248],[None],1697.4486486999995,1697.4625161000004,1697.4625161000004,1697.4625161000004,1698.3467445999995,1,0.8819192999999359,1,0.8819192999999359,,,,,,sub23_AB,001,2026-01-18_17h24.57.466,recognitionstage,,2025.1.1,59.96055794480673,2026-01-18 17h26.24.506983 +0530,
,,,21,21,0,33,frames\Vid33_BB_T.png,frames\Vid33_L.png,['l'],1,[2.91796179999983],[None],5,1.1145811000005779,,,,,0,21,21,32,1698.3792066000005,,21,Female,Right handed,Normal,,,,,,,,,,,,,,,,,,,,,,,,,,,,,,,,,,,,,,,,1698.3580576000004,1698.3792066000005,1698.3792066000005,1698.3792066000005,1698.3792066000005,1698.3792066000005,1698.3792066000005,1701.2987534000004,['l'],1,[2.91796179999983],[None],1701.2997182,1701.3124850999993,1701.3124850999993,1701.3124850999993,1702.4301897000005,5,1.1145811000005779,5,1.1145811000005779,,,,,,sub23_AB,001,2026-01-18_17h24.57.466,recognitionstage,,2025.1.1,59.96055794480673,2026-01-18 17h26.24.506983 +0530,
,,,22,22,0,21,frames\Vid21_BB_T.png,frames\Vid21_L.png,['r'],1,[3.3943350999998074],[None],5,0.715376500000275,,,,,0,22,22,20,1702.4627911000007,,21,Female,Right handed,Normal,,,,,,,,,,,,,,,,,,,,,,,,,,,,,,,,,,,,,,,,1702.4434949000006,1702.4627911000007,1702.4627911000007,1702.4627911000007,1702.4627911000007,1702.4627911000007,1702.4627911000007,1705.8641657999997,['r'],1,[3.3943350999998074],[None],1705.8650548999994,1705.8795255000005,1705.8795255000005,1705.8795255000005,1706.5969256999997,5,0.715376500000275,5,0.715376500000275,,,,,,sub23_AB,001,2026-01-18_17h24.57.466,recognitionstage,,2025.1.1,59.96055794480673,2026-01-18 17h26.24.506983 +0530,
,,,23,23,0,6,frames\Vid6_BB_T.png,frames\Vid6_L.png,['l'],1,[3.289619999999559],[None],5,1.3661147999991954,,,,,0,23,23,5,1706.6633672999997,,21,Female,Right handed,Normal,,,,,,,,,,,,,,,,,,,,,,,,,,,,,,,,,,,,,,,,1706.6423398999996,1706.6633672999997,1706.6633672999997,1706.6633672999997,1706.6633672999997,1706.6633672999997,1706.6633672999997,1709.964028800001,['l'],1,[3.289619999999559],[None],1709.9649838000005,1709.9943894000007,1709.9943894000007,1709.9943894000007,1711.3474931,5,1.3661147999991954,5,1.3661147999991954,,,,,,sub23_AB,001,2026-01-18_17h24.57.466,recognitionstage,,2025.1.1,59.96055794480673,2026-01-18 17h26.24.506983 +0530,
,,,24,24,0,12,frames\Vid12_EM_T.png,frames\Vid12_L.png,['l'],1,[4.304601400001047],[None],5,0.5785354999989067,,,,,0,24,24,11,1711.4168119999995,,21,Female,Right handed,Normal,,,,,,,,,,,,,,,,,,,,,,,,,,,,,,,,,,,,,,,,1711.3987736,1711.4168119999995,1711.4168119999995,1711.4168119999995,1711.4168119999995,1711.4168119999995,1711.4168119999995,1715.7342733000005,['l'],1,[4.304601400001047],[None],1715.7364051999994,1715.7613638000003,1715.7613638000003,1715.7613638000003,1716.3298455000004,5,0.5785354999989067,5,0.5785354999989067,,,,,,sub23_AB,001,2026-01-18_17h24.57.466,recognitionstage,,2025.1.1,59.96055794480673,2026-01-18 17h26.24.506983 +0530,
,,,25,25,0,34,frames\Vid34_BB_T.png,frames\Vid34_L.png,['l'],0,[4.362160999999105],[None],1,1.7984311000000162,,,,,0,25,25,33,1716.3509393000004,,21,Female,Right handed,Normal,,,,,,,,,,,,,,,,,,,,,,,,,,,,,,,,,,,,,,,,1716.3388095999999,1716.3509393000004,1716.3509393000004,1716.3509393000004,1716.3509393000004,1716.3509393000004,1716.3509393000004,1720.7149886999996,['l'],0,[4.362160999999105],[None],1720.7157659999993,1720.7292013999995,1720.7292013999995,1720.7292013999995,1722.5295434,1,1.7984311000000162,1,1.7984311000000162,,,,,,sub23_AB,001,2026-01-18_17h24.57.466,recognitionstage,,2025.1.1,59.96055794480673,2026-01-18 17h26.24.506983 +0530,
,,,26,26,0,23,frames\Vid23_EM_T.png,frames\Vid23_L.png,['r'],1,[4.3506820000002335],[None],2,1.6646395000007033,,,,,0,26,26,22,1722.562557000001,,21,Female,Right handed,Normal,,,,,,,,,,,,,,,,,,,,,,,,,,,,,,,,,,,,,,,,1722.5445633,1722.562557000001,1722.562557000001,1722.562557000001,1722.562557000001,1722.562557000001,1722.562557000001,1726.9159560999997,['r'],1,[4.3506820000002335],[None],1726.9169920000004,1726.9294097000002,1726.9294097000002,1726.9294097000002,1728.5966079999998,2,1.6646395000007033,2,1.6646395000007033,,,,,,sub23_AB,001,2026-01-18_17h24.57.466,recognitionstage,,2025.1.1,59.96055794480673,2026-01-18 17h26.24.506983 +0530,
,,,27,27,0,38,frames\Vid38_EM_T.png,frames\Vid38_L.png,['l'],1,[5.003186099998857],[None],4,1.2977673999994295,,,,,0,27,27,37,1728.6298631999998,,21,Female,Right handed,Normal,,,,,,,,,,,,,,,,,,,,,,,,,,,,,,,,,,,,,,,,1728.609053600001,1728.6298631999998,1728.6298631999998,1728.6298631999998,1728.6298631999998,1728.6298631999998,1728.6298631999998,1733.6486523000003,['l'],1,[5.003186099998857],[None],1733.6495572000003,1733.662606400001,1733.662606400001,1733.662606400001,1734.9634533000008,4,1.2977673999994295,4,1.2977673999994295,,,,,,sub23_AB,001,2026-01-18_17h24.57.466,recognitionstage,,2025.1.1,59.96055794480673,2026-01-18 17h26.24.506983 +0530,
,,,28,28,0,36,frames\Vid36_BB_T.png,frames\Vid36_L.png,['r'],1,[3.3251338000009127],[None],5,1.1975276000011945,,,,,0,28,28,35,1734.9960040999995,,21,Female,Right handed,Normal,,,,,,,,,,,,,,,,,,,,,,,,,,,,,,,,,,,,,,,,1734.9760315000003,1734.9960040999995,1734.9960040999995,1734.9960040999995,1734.9960040999995,1734.9960040999995,1734.9960040999995,1738.3314733999996,['r'],1,[3.3251338000009127],[None],1738.3324553000002,1738.346515000001,1738.346515000001,1738.346515000001,1739.5473194999995,5,1.1975276000011945,5,1.1975276000011945,,,,,,sub23_AB,001,2026-01-18_17h24.57.466,recognitionstage,,2025.1.1,59.96055794480673,2026-01-18 17h26.24.506983 +0530,
,,,29,29,0,11,frames\Vid11_EM_T.png,frames\Vid11_L.png,['r'],1,[3.187628499999846],[None],3,2.498557900000378,,,,,0,29,29,10,1739.6134956000005,,21,Female,Right handed,Normal,,,,,,,,,,,,,,,,,,,,,,,,,,,,,,,,,,,,,,,,1739.592306300001,1739.6134956000005,1739.6134956000005,1739.6134956000005,1739.6134956000005,1739.6134956000005,1739.6134956000005,1742.814562900001,['r'],1,[3.187628499999846],[None],1742.8154890000005,1742.8295672999993,1742.8295672999993,1742.8295672999993,1745.330761000001,3,2.498557900000378,3,2.498557900000378,,,,,,sub23_AB,001,2026-01-18_17h24.57.466,recognitionstage,,2025.1.1,59.96055794480673,2026-01-18 17h26.24.506983 +0530,
,,,30,30,0,19,frames\Vid19_BB_T.png,frames\Vid19_L.png,['l'],1,[5.675366399998893],[None],1,1.0985354000004008,,,,,0,30,30,18,1745.3657074000002,,21,Female,Right handed,Normal,,,,,,,,,,,,,,,,,,,,,,,,,,,,,,,,,,,,,,,,1745.3426775999997,1745.3657074000002,1745.3657074000002,1745.3657074000002,1745.3657074000002,1745.3657074000002,1745.3657074000002,1751.0481584000008,['l'],1,[5.675366399998893],[None],1751.048868400001,1751.0624485000008,1751.0624485000008,1751.0624485000008,1752.1636617999993,1,1.0985354000004008,1,1.0985354000004008,,,,,,sub23_AB,001,2026-01-18_17h24.57.466,recognitionstage,,2025.1.1,59.96055794480673,2026-01-18 17h26.24.506983 +0530,
,,,31,31,0,31,frames\Vid31_EM_T.png,frames\Vid31_L.png,['l'],1,[3.251521700000012],[None],3,1.248513999998977,,,,,0,31,31,30,1752.1814759999997,,21,Female,Right handed,Normal,,,,,,,,,,,,,,,,,,,,,,,,,,,,,,,,,,,,,,,,1752.1725115999998,1752.1814759999997,1752.1814759999997,1752.1814759999997,1752.1814759999997,1752.1814759999997,1752.1814759999997,1755.4480131,['l'],1,[3.251521700000012],[None],1755.448760700001,1755.4625441000007,1755.4625441000007,1755.4625441000007,1756.7133625000006,3,1.248513999998977,3,1.248513999998977,,,,,,sub23_AB,001,2026-01-18_17h24.57.466,recognitionstage,,2025.1.1,59.96055794480673,2026-01-18 17h26.24.506983 +0530,
,,,32,32,0,8,frames\Vid8_BB_T.png,frames\Vid8_L.png,['r'],0,[3.6298847000016394],[None],5,1.0480281000000105,,,,,0,32,32,7,1756.7633208000007,,21,Female,Right handed,Normal,,,,,,,,,,,,,,,,,,,,,,,,,,,,,,,,,,,,,,,,1756.7506071999996,1756.7633208000007,1756.7633208000007,1756.7633208000007,1756.7633208000007,1756.7633208000007,1756.7633208000007,1760.3981992000008,['r'],0,[3.6298847000016394],[None],1760.3994053999995,1760.4129051,1760.4129051,1760.4129051,1761.4639160000006,5,1.0480281000000105,5,1.0480281000000105,,,,,,sub23_AB,001,2026-01-18_17h24.57.466,recognitionstage,,2025.1.1,59.96055794480673,2026-01-18 17h26.24.506983 +0530,
,,,33,33,0,35,frames\Vid35_EM_T.png,frames\Vid35_L.png,['l'],1,[4.628896300000633],[None],3,1.2646644999986165,,,,,0,33,33,34,1761.484095400001,,21,Female,Right handed,Normal,,,,,,,,,,,,,,,,,,,,,,,,,,,,,,,,,,,,,,,,1761.4735617000006,1761.484095400001,1761.484095400001,1761.484095400001,1761.484095400001,1761.484095400001,1761.484095400001,1766.1150426999993,['l'],1,[4.628896300000633],[None],1766.1159017999998,1766.1291449,1766.1291449,1766.1291449,1767.3965306999999,3,1.2646644999986165,3,1.2646644999986165,,,,,,sub23_AB,001,2026-01-18_17h24.57.466,recognitionstage,,2025.1.1,59.96055794480673,2026-01-18 17h26.24.506983 +0530,
,,,34,34,0,20,frames\Vid20_EM_T.png,frames\Vid20_L.png,['l'],1,[2.7145141000000876],[None],5,1.5484383000002708,,,,,0,34,34,19,1767.414531800001,,21,Female,Right handed,Normal,,,,,,,,,,,,,,,,,,,,,,,,,,,,,,,,,,,,,,,,1767.4043965,1767.414531800001,1767.414531800001,1767.414531800001,1767.414531800001,1767.414531800001,1767.414531800001,1770.1311981,['l'],1,[2.7145141000000876],[None],1770.1322132000005,1770.1462026000008,1770.1462026000008,1770.1462026000008,1771.6966279000007,5,1.5484383000002708,5,1.5484383000002708,,,,,,sub23_AB,001,2026-01-18_17h24.57.466,recognitionstage,,2025.1.1,59.96055794480673,2026-01-18 17h26.24.506983 +0530,
,,,35,35,0,37,frames\Vid37_BB_T.png,frames\Vid37_L.png,['r'],1,[3.60781119999956],[None],5,1.4307555000013963,,,,,0,35,35,36,1771.729210900001,,21,Female,Right handed,Normal,,,,,,,,,,,,,,,,,,,,,,,,,,,,,,,,,,,,,,,,1771.707795100001,1771.729210900001,1771.729210900001,1771.729210900001,1771.729210900001,1771.729210900001,1771.729210900001,1775.349022800001,['r'],1,[3.60781119999956],[None],1775.3501512000003,1775.362546100001,1775.362546100001,1775.362546100001,1776.7963958,5,1.4307555000013963,5,1.4307555000013963,,,,,,sub23_AB,001,2026-01-18_17h24.57.466,recognitionstage,,2025.1.1,59.96055794480673,2026-01-18 17h26.24.506983 +0530,
,,,36,36,0,5,frames\Vid5_EM_T.png,frames\Vid5_L.png,['l'],1,[2.84258200000113],[None],1,0.865723099999741,,,,,0,36,36,4,1776.8465175000001,,21,Female,Right handed,Normal,,,,,,,,,,,,,,,,,,,,,,,,,,,,,,,,,,,,,,,,1776.8271628000002,1776.8465175000001,1776.8465175000001,1776.8465175000001,1776.8465175000001,1776.8465175000001,1776.8465175000001,1779.6983727999996,['l'],1,[2.84258200000113],[None],1779.6992035000003,1779.7128905000009,1779.7128905000009,1779.7128905000009,1780.5804568000003,1,0.865723099999741,1,0.865723099999741,,,,,,sub23_AB,001,2026-01-18_17h24.57.466,recognitionstage,,2025.1.1,59.96055794480673,2026-01-18 17h26.24.506983 +0530,
,,,37,37,0,17,frames\Vid17_BB_T.png,frames\Vid17_L.png,['r'],0,[9.905774800001382],[None],1,0.69921179999983,,,,,0,37,37,16,1780.6313403999993,,21,Female,Right handed,Normal,,,,,,,,,,,,,,,,,,,,,,,,,,,,,,,,,,,,,,,,1780.6122532999998,1780.6313403999993,1780.6313403999993,1780.6313403999993,1780.6313403999993,1780.6313403999993,1780.6313403999993,1790.548070500001,['r'],0,[9.905774800001382],[None],1790.5487506999998,1790.5627571000005,1790.5627571000005,1790.5627571000005,1791.2637199,1,0.69921179999983,1,0.69921179999983,,,,,,sub23_AB,001,2026-01-18_17h24.57.466,recognitionstage,,2025.1.1,59.96055794480673,2026-01-18 17h26.24.506983 +0530,
,,,38,38,0,22,frames\Vid22_EM_T.png,frames\Vid22_L.png,['r'],1,[3.4078263999999763],[None],5,0.7976371000004292,,,,,0,38,38,21,1791.2973567000008,,21,Female,Right handed,Normal,,,,,,,,,,,,,,,,,,,,,,,,,,,,,,,,,,,,,,,,1791.2800559999996,1791.2973567000008,1791.2973567000008,1791.2973567000008,1791.2973567000008,1791.2973567000008,1791.2973567000008,1794.7154002000007,['r'],1,[3.4078263999999763],[None],1794.7166369999995,1794.7294972,1794.7294972,1794.7294972,1795.5303891000003,5,0.7976371000004292,5,0.7976371000004292,,,,,,sub23_AB,001,2026-01-18_17h24.57.466,recognitionstage,,2025.1.1,59.96055794480673,2026-01-18 17h26.24.506983 +0530,
,,,39,39,0,29,frames\Vid29_BB_T.png,frames\Vid29_L.png,['r'],1,[3.7020517000000837],[None],1,1.1632266999986314,,,,,0,39,39,28,1795.5629731000008,,21,Female,Right handed,Normal,,,,,,,,,,,,,,,,,,,,,,,,,,,,,,,,,,,,,,,,1795.5419619000004,1795.5629731000008,1795.5629731000008,1795.5629731000008,1795.5629731000008,1795.5629731000008,1795.5629731000008,1799.2837178000009,['r'],1,[3.7020517000000837],[None],1799.2850681,1799.2959907000004,1799.2959907000004,1799.2959907000004,1800.463582100001,1,1.1632266999986314,1,1.1632266999986314,,,,,,sub23_AB,001,2026-01-18_17h24.57.466,recognitionstage,,2025.1.1,59.96055794480673,2026-01-18 17h26.24.506983 +0530,
,,,,,,,,,,,,,,,,,,,,,,,,,21,Female,Right handed,Normal,,,,,,,,,,,,,,,,,,,,,,,,,,,,,,,,,,,,,,,,,,,,,,,,,,,,,,,,,,,,,1800.4636929000008,1800.4811422000002,1800.4811422000002,1820.463741200001,None,sub23_AB,001,2026-01-18_17h24.57.466,recognitionstage,,2025.1.1,59.96055794480673,2026-01-18 17h26.24.506983 +0530,
