path,duration,is_repeat,thisN,thisTrialN,thisRepN,movie_id,target_img,lure_img,resp.keys,resp.corr,resp.rt,resp.duration,conf_radio.response,conf_radio.rt,movie.thisRepN,movie.thisTrialN,movie.thisN,movie.thisIndex,recogloop.thisRepN,recogloop.thisTrialN,recogloop.thisN,recogloop.thisIndex,thisRow.t,notes,age,gender,handedness,vision,caffeine_2h,alcohol_smoke_12h,demographics.started,demographics.stopped,Instructions.started,text1.started,key_resp.started,Instructions.stopped,key_resp.keys,key_resp.rt,key_resp.duration,instruction_2.started,text2.started,key_resp_2.started,instruction_2.stopped,key_resp_2.keys,key_resp_2.rt,key_resp_2.duration,Videos.started,movie_2.started,vigilance_resp.started,movie_2.stopped,Videos.stopped,movie.vigilance_resp.keys,vigilance_pressed,vigilance_correct,ISI.started,text.started,ISI.stopped,text.stopped,movie.vigilance_resp.rt,movie.vigilance_resp.duration,recognition.started,text_4.started,key_resp_3.started,recognition.stopped,key_resp_3.keys,key_resp_3.rt,key_resp_3.duration,recognition_task.started,leftimage.started,rightimage.started,resp.started,frames_question.started,right_label.started,left_label.started,recognition_task.stopped,recogloop.resp.keys,recogloop.resp.corr,recogloop.resp.rt,recogloop.resp.duration,confidence.started,conf_text.started,conf_radio.started,conf_label.started,confidence.stopped,recogloop.conf_radio.response,recogloop.conf_radio.rt,confidence,confidence_rt,thank_you.started,text_6.started,key_resp_4.started,thank_you.stopped,key_resp_4.keys,participant,session,date,expName,expVersion,psychopyVersion,frameRate,expStart,...103
,,,,,,,,,,,,,,,,,,,,,,,,,20,Female,Right handed,Normal,Caffeine consumed in last 2 hours?,Alcohol or smoking in last 12 hours?,0.013448999990941957,0.0754564999951981,,,,,,,,,,,,,,,,,,,,,,,,,,,,,,,,,,,,,,,,,,,,,,,,,,,,,,,,,,,,,,sub37_AB,001,2026-01-19_15h32.27.853,recognitionstage,,2025.1.1,60.03536082595614,2026-01-19 15h34.09.292518 +0530,
,,,,,,,,,,,,,,,,,,,,,,,,,20,Female,Right handed,Normal,,,,,0.07548539999697823,0.0807453000015812,0.0807453000015812,13.717647500001476,space,13.632805499990354,None,,,,,,,,,,,,,,,,,,,,,,,,,,,,,,,,,,,,,,,,,,,,,,,,,,,,,,,sub37_AB,001,2026-01-19_15h32.27.853,recognitionstage,,2025.1.1,60.03536082595614,2026-01-19 15h34.09.292518 +0530,
,,,,,,,,,,,,,,,,,,,,,,,,,20,Female,Right handed,Normal,,,,,,,,,,,,13.71770789999573,13.733607000001939,13.733607000001939,30.01720590000332,space,16.267859300001874,None,,,,,,,,,,,,,,,,,,,,,,,,,,,,,,,,,,,,,,,,,,,,,,,,sub37_AB,001,2026-01-19_15h32.27.853,recognitionstage,,2025.1.1,60.03536082595614,2026-01-19 15h34.09.292518 +0530,
abrupt_videos\abrupt_19.mp4,36,0,44,44,0,,,,,,,,,,0,44,44,21,,,,,1516.8321609999985,,20,Female,Right handed,Normal,,,,,,,,,,,,,,,,,,,1516.7813842999894,1516.8321609999985,1516.8321609999985,1553.7981405000028,1553.648549199992,None,0,1,1553.783604199998,1553.7981405000028,1556.284540499997,1516.8321609999985,[5.546435099997325],[None],1556.2846456999978,1556.2999933999963,1556.2999933999963,1601.0846081999916,space,44.77391300001182,None,,,,,,,,,,,,,,,,,,,,,,,,,,,sub37_AB,001,2026-01-19_15h32.27.853,recognitionstage,,2025.1.1,60.03536082595614,2026-01-19 15h34.09.292518 +0530,
,,,0,0,0,23,frames\Vid23_EM_T.png,frames\Vid23_L.png,['l'],1,[6.703081500003464],[None],5,5.8319517000054475,,,,,0,0,0,22,1601.130922299999,,20,Female,Right handed,Normal,,,,,,,,,,,,,,,,,,,,,,,,,,,,,,,,,,,,,,,,1601.123164699995,1601.130922299999,1601.130922299999,1601.130922299999,1601.130922299999,1601.130922299999,1601.130922299999,1607.8511115000001,['l'],1,[6.703081500003464],[None],1607.8523144999926,1607.8654998999991,1607.8654998999991,1607.8654998999991,1613.699859699991,5,5.8319517000054475,5,5.8319517000054475,,,,,,sub37_AB,001,2026-01-19_15h32.27.853,recognitionstage,,2025.1.1,60.03536082595614,2026-01-19 15h34.09.292518 +0530,
,,,1,1,0,18,frames\Vid18_EM_T.png,frames\Vid18_L.png,['r'],1,[6.685970200007432],[None],5,3.897049600011087,,,,,0,1,1,17,1613.747769099995,,20,Female,Right handed,Normal,,,,,,,,,,,,,,,,,,,,,,,,,,,,,,,,,,,,,,,,1613.7298478000012,1613.747769099995,1613.747769099995,1613.747769099995,1613.747769099995,1613.747769099995,1613.747769099995,1620.435475899998,['r'],1,[6.685970200007432],[None],1620.436360599997,1620.4487037999934,1620.4487037999934,1620.4487037999934,1624.3500146000006,5,3.897049600011087,5,3.897049600011087,,,,,,sub37_AB,001,2026-01-19_15h32.27.853,recognitionstage,,2025.1.1,60.03536082595614,2026-01-19 15h34.09.292518 +0530,
,,,2,2,0,19,frames\Vid19_BB_T.png,frames\Vid19_L.png,['l'],1,[7.531287100006011],[None],3,2.8814244999957737,,,,,0,2,2,18,1624.3824778999988,,20,Female,Right handed,Normal,,,,,,,,,,,,,,,,,,,,,,,,,,,,,,,,,,,,,,,,1624.3760107999988,1624.3824778999988,1624.3824778999988,1624.3824778999988,1624.3824778999988,1624.3824778999988,1624.3824778999988,1631.9179449999938,['l'],1,[7.531287100006011],[None],1631.9190299000038,1631.9324398000026,1631.9324398000026,1631.9324398000026,1634.816577199992,3,2.8814244999957737,3,2.8814244999957737,,,,,,sub37_AB,001,2026-01-19_15h32.27.853,recognitionstage,,2025.1.1,60.03536082595614,2026-01-19 15h34.09.292518 +0530,
,,,3,3,0,5,frames\Vid5_EM_T.png,frames\Vid5_L.png,['r'],1,[4.262668499999563],[None],5,3.731752299994696,,,,,0,3,3,4,1634.883206300001,,20,Female,Right handed,Normal,,,,,,,,,,,,,,,,,,,,,,,,,,,,,,,,,,,,,,,,1634.8606593000004,1634.883206300001,1634.883206300001,1634.883206300001,1634.883206300001,1634.883206300001,1634.883206300001,1639.1506208999926,['r'],1,[4.262668499999563],[None],1639.1514350999933,1639.1659130999906,1639.1659130999906,1639.1659130999906,1642.8999821999896,5,3.731752299994696,5,3.731752299994696,,,,,,sub37_AB,001,2026-01-19_15h32.27.853,recognitionstage,,2025.1.1,60.03536082595614,2026-01-19 15h34.09.292518 +0530,
,,,4,4,0,17,frames\Vid17_BB_T.png,frames\Vid17_L.png,['r'],0,[5.40552069999103],[None],3,1.6307852000027196,,,,,0,4,4,16,1642.964173100001,,20,Female,Right handed,Normal,,,,,,,,,,,,,,,,,,,,,,,,,,,,,,,,,,,,,,,,1642.9467225999979,1642.964173100001,1642.964173100001,1642.964173100001,1642.964173100001,1642.964173100001,1642.964173100001,1648.3852898999903,['r'],0,[5.40552069999103],[None],1648.3866617000022,1648.39891969999,1648.39891969999,1648.39891969999,1650.0333987999911,3,1.6307852000027196,3,1.6307852000027196,,,,,,sub37_AB,001,2026-01-19_15h32.27.853,recognitionstage,,2025.1.1,60.03536082595614,2026-01-19 15h34.09.292518 +0530,
,,,5,5,0,37,frames\Vid37_BB_T.png,frames\Vid37_L.png,['r'],1,[3.590612999993027],[None],5,1.7977148000063607,,,,,0,5,5,36,1650.0671438999998,,20,Female,Right handed,Normal,,,,,,,,,,,,,,,,,,,,,,,,,,,,,,,,,,,,,,,,1650.0452806999965,1650.0671438999998,1650.0671438999998,1650.0671438999998,1650.0671438999998,1650.0671438999998,1650.0671438999998,1653.667767699997,['r'],1,[3.590612999993027],[None],1653.6688786000013,1653.682492299995,1653.682492299995,1653.682492299995,1655.4840608999948,5,1.7977148000063607,5,1.7977148000063607,,,,,,sub37_AB,001,2026-01-19_15h32.27.853,recognitionstage,,2025.1.1,60.03536082595614,2026-01-19 15h34.09.292518 +0530,
,,,6,6,0,40,frames\Vid40_EM_T.png,frames\Vid40_L.png,['r'],1,[4.582072999997763],[None],5,1.148113299990655,,,,,0,6,6,39,1655.5156895999971,,20,Female,Right handed,Normal,,,,,,,,,,,,,,,,,,,,,,,,,,,,,,,,,,,,,,,,1655.5060927000013,1655.5156895999971,1655.5156895999971,1655.5156895999971,1655.5156895999971,1655.5156895999971,1655.5156895999971,1660.1016095999948,['r'],1,[4.582072999997763],[None],1660.1024344999896,1660.1155457999994,1660.1155457999994,1660.1155457999994,1661.2672862000036,5,1.148113299990655,5,1.148113299990655,,,,,,sub37_AB,001,2026-01-19_15h32.27.853,recognitionstage,,2025.1.1,60.03536082595614,2026-01-19 15h34.09.292518 +0530,
,,,7,7,0,31,frames\Vid31_EM_T.png,frames\Vid31_L.png,['r'],1,[3.7112839999899734],[None],5,1.146120899997186,,,,,0,7,7,30,1661.2984753999917,,20,Female,Right handed,Normal,,,,,,,,,,,,,,,,,,,,,,,,,,,,,,,,,,,,,,,,1661.293232099997,1661.2984753999917,1661.2984753999917,1661.2984753999917,1661.2984753999917,1661.2984753999917,1661.2984753999917,1665.019120099998,['r'],1,[3.7112839999899734],[None],1665.0208577000012,1665.046988599992,1665.046988599992,1665.046988599992,1666.1828954999946,5,1.146120899997186,5,1.146120899997186,,,,,,sub37_AB,001,2026-01-19_15h32.27.853,recognitionstage,,2025.1.1,60.03536082595614,2026-01-19 15h34.09.292518 +0530,
,,,8,8,0,29,frames\Vid29_BB_T.png,frames\Vid29_L.png,['l'],1,[5.473876699994435],[None],5,1.1139867000019876,,,,,0,8,8,28,1666.2157274999918,,20,Female,Right handed,Normal,,,,,,,,,,,,,,,,,,,,,,,,,,,,,,,,,,,,,,,,1666.2087791999948,1666.2157274999918,1666.2157274999918,1666.2157274999918,1666.2157274999918,1666.2157274999918,1666.2157274999918,1671.7016335999942,['l'],1,[5.473876699994435],[None],1671.7026305999898,1671.71575019999,1671.71575019999,1671.71575019999,1672.8332004999975,5,1.1139867000019876,5,1.1139867000019876,,,,,,sub37_AB,001,2026-01-19_15h32.27.853,recognitionstage,,2025.1.1,60.03536082595614,2026-01-19 15h34.09.292518 +0530,
,,,9,9,0,27,frames\Vid27_BB_T.png,frames\Vid27_L.png,['r'],1,[3.967876900002011],[None],5,1.2806050999934087,,,,,0,9,9,26,1672.8658792999922,,20,Female,Right handed,Normal,,,,,,,,,,,,,,,,,,,,,,,,,,,,,,,,,,,,,,,,1672.8558053000015,1672.8658792999922,1672.8658792999922,1672.8658792999922,1672.8658792999922,1672.8658792999922,1672.8658792999922,1676.8353658999986,['r'],1,[3.967876900002011],[None],1676.836527099993,1676.8497330999962,1676.8497330999962,1676.8497330999962,1678.1328647999908,5,1.2806050999934087,5,1.2806050999934087,,,,,,sub37_AB,001,2026-01-19_15h32.27.853,recognitionstage,,2025.1.1,60.03536082595614,2026-01-19 15h34.09.292518 +0530,
,,,10,10,0,3,frames\Vid3_BB_T.png,frames\Vid3_L.png,['l'],1,[6.882071100000758],[None],5,1.547712399988086,,,,,0,10,10,2,1678.199574600003,,20,Female,Right handed,Normal,,,,,,,,,,,,,,,,,,,,,,,,,,,,,,,,,,,,,,,,1678.1864044999966,1678.199574600003,1678.199574600003,1678.199574600003,1678.199574600003,1678.199574600003,1678.199574600003,1685.0849566999968,['l'],1,[6.882071100000758],[None],1685.0856716999988,1685.0991721000028,1685.0991721000028,1685.0991721000028,1686.6504794999928,5,1.547712399988086,5,1.547712399988086,,,,,,sub37_AB,001,2026-01-19_15h32.27.853,recognitionstage,,2025.1.1,60.03536082595614,2026-01-19 15h34.09.292518 +0530,
,,,11,11,0,8,frames\Vid8_BB_T.png,frames\Vid8_L.png,['l'],0,[13.034714200010058],[None],5,1.8485612999938894,,,,,0,11,11,7,1686.7188958999905,,20,Female,Right handed,Normal,,,,,,,,,,,,,,,,,,,,,,,,,,,,,,,,,,,,,,,,1686.703512299995,1686.7188958999905,1686.7188958999905,1686.7188958999905,1686.7188958999905,1686.7188958999905,1686.7188958999905,1699.767513999992,['l'],0,[13.034714200010058],[None],1699.7683984000032,1699.7827504000015,1699.7827504000015,1699.7827504000015,1701.6333920999896,5,1.8485612999938894,5,1.8485612999938894,,,,,,sub37_AB,001,2026-01-19_15h32.27.853,recognitionstage,,2025.1.1,60.03536082595614,2026-01-19 15h34.09.292518 +0530,
,,,12,12,0,9,frames\Vid9_EM_T.png,frames\Vid9_L.png,['r'],1,[4.291128199998639],[None],5,1.1654062000015983,,,,,0,12,12,8,1701.7026133999898,,20,Female,Right handed,Normal,,,,,,,,,,,,,,,,,,,,,,,,,,,,,,,,,,,,,,,,1701.6847211999993,1701.7026133999898,1701.7026133999898,1701.7026133999898,1701.7026133999898,1701.7026133999898,1701.7026133999898,1706.000547699994,['r'],1,[4.291128199998639],[None],1706.0013405999925,1706.0158478999947,1706.0158478999947,1706.0158478999947,1707.1830897000036,5,1.1654062000015983,5,1.1654062000015983,,,,,,sub37_AB,001,2026-01-19_15h32.27.853,recognitionstage,,2025.1.1,60.03536082595614,2026-01-19 15h34.09.292518 +0530,
,,,13,13,0,24,frames\Vid24_BB_T.png,frames\Vid24_L.png,['l'],1,[5.463723399996525],[None],5,1.0987315999955172,,,,,0,13,13,23,1707.2179035000008,,20,Female,Right handed,Normal,,,,,,,,,,,,,,,,,,,,,,,,,,,,,,,,,,,,,,,,1707.2091847999982,1707.2179035000008,1707.2179035000008,1707.2179035000008,1707.2179035000008,1707.2179035000008,1707.2179035000008,1712.6837470000028,['l'],1,[5.463723399996525],[None],1712.6845031999983,1712.6991108999937,1712.6991108999937,1712.6991108999937,1713.7996567999944,5,1.0987315999955172,5,1.0987315999955172,,,,,,sub37_AB,001,2026-01-19_15h32.27.853,recognitionstage,,2025.1.1,60.03536082595614,2026-01-19 15h34.09.292518 +0530,
,,,14,14,0,33,frames\Vid33_BB_T.png,frames\Vid33_L.png,['l'],1,[7.353274900000542],[None],5,1.3986465999914799,,,,,0,14,14,32,1713.8323041999975,,20,Female,Right handed,Normal,,,,,,,,,,,,,,,,,,,,,,,,,,,,,,,,,,,,,,,,1713.8223708000005,1713.8323041999975,1713.8323041999975,1713.8323041999975,1713.8323041999975,1713.8323041999975,1713.8323041999975,1721.2004316999955,['l'],1,[7.353274900000542],[None],1721.2011328999943,1721.2159722999932,1721.2159722999932,1721.2159722999932,1722.6167916999984,5,1.3986465999914799,5,1.3986465999914799,,,,,,sub37_AB,001,2026-01-19_15h32.27.853,recognitionstage,,2025.1.1,60.03536082595614,2026-01-19 15h34.09.292518 +0530,
,,,15,15,0,25,frames\Vid25_BB_T.png,frames\Vid25_L.png,['r'],1,[11.744284200001857],[None],5,1.2643363999959547,,,,,0,15,15,24,1722.6654982999898,,20,Female,Right handed,Normal,,,,,,,,,,,,,,,,,,,,,,,,,,,,,,,,,,,,,,,,1722.6435313999973,1722.6654982999898,1722.6654982999898,1722.6654982999898,1722.6654982999898,1722.6654982999898,1722.6654982999898,1734.4181361999945,['r'],1,[11.744284200001857],[None],1734.419155800002,1734.4321647000033,1734.4321647000033,1734.4321647000033,1735.6999404999951,5,1.2643363999959547,5,1.2643363999959547,,,,,,sub37_AB,001,2026-01-19_15h32.27.853,recognitionstage,,2025.1.1,60.03536082595614,2026-01-19 15h34.09.292518 +0530,
,,,16,16,0,13,frames\Vid13_BB_T.png,frames\Vid13_L.png,['r'],0,[3.731692800007295],[None],5,1.0823287000093842,,,,,0,16,16,12,1735.7661675999989,,20,Female,Right handed,Normal,,,,,,,,,,,,,,,,,,,,,,,,,,,,,,,,,,,,,,,,1735.7460655999894,1735.7661675999989,1735.7661675999989,1735.7661675999989,1735.7661675999989,1735.7661675999989,1735.7661675999989,1739.500387699998,['r'],0,[3.731692800007295],[None],1739.5012164999935,1739.5160977999913,1739.5160977999913,1739.5160977999913,1740.5998370000016,5,1.0823287000093842,5,1.0823287000093842,,,,,,sub37_AB,001,2026-01-19_15h32.27.853,recognitionstage,,2025.1.1,60.03536082595614,2026-01-19 15h34.09.292518 +0530,
,,,17,17,0,36,frames\Vid36_BB_T.png,frames\Vid36_L.png,['r'],0,[3.4627668999892194],[None],5,1.2320353999966756,,,,,0,17,17,35,1740.6349362000037,,20,Female,Right handed,Normal,,,,,,,,,,,,,,,,,,,,,,,,,,,,,,,,,,,,,,,,1740.6260043999937,1740.6349362000037,1740.6349362000037,1740.6349362000037,1740.6349362000037,1740.6349362000037,1740.6349362000037,1744.1006532000029,['r'],0,[3.4627668999892194],[None],1744.1015254999948,1744.1159850999975,1744.1159850999975,1744.1159850999975,1745.3507702999923,5,1.2320353999966756,5,1.2320353999966756,,,,,,sub37_AB,001,2026-01-19_15h32.27.853,recognitionstage,,2025.1.1,60.03536082595614,2026-01-19 15h34.09.292518 +0530,
,,,18,18,0,6,frames\Vid6_BB_T.png,frames\Vid6_L.png,['r'],1,[3.721064400000614],[None],5,1.0648421000078088,,,,,0,18,18,5,1745.4166592999973,,20,Female,Right handed,Normal,,,,,,,,,,,,,,,,,,,,,,,,,,,,,,,,,,,,,,,,1745.4069563999947,1745.4166592999973,1745.4166592999973,1745.4166592999973,1745.4166592999973,1745.4166592999973,1745.4166592999973,1749.1507538000005,['r'],1,[3.721064400000614],[None],1749.1516756999918,1749.1660478999984,1749.1660478999984,1749.1660478999984,1750.2340657000022,5,1.0648421000078088,5,1.0648421000078088,,,,,,sub37_AB,001,2026-01-19_15h32.27.853,recognitionstage,,2025.1.1,60.03536082595614,2026-01-19 15h34.09.292518 +0530,
,,,19,19,0,39,frames\Vid39_BB_T.png,frames\Vid39_L.png,['l'],1,[5.941427900004783],[None],5,0.9973325000028126,,,,,0,19,19,38,1750.2684687,,20,Female,Right handed,Normal,,,,,,,,,,,,,,,,,,,,,,,,,,,,,,,,,,,,,,,,1750.2565249999898,1750.2684687,1750.2684687,1750.2684687,1750.2684687,1750.2684687,1750.2684687,1756.218569299992,['l'],1,[5.941427900004783],[None],1756.2197014999983,1756.232084000003,1756.232084000003,1756.232084000003,1757.2333251999953,5,0.9973325000028126,5,0.9973325000028126,,,,,,sub37_AB,001,2026-01-19_15h32.27.853,recognitionstage,,2025.1.1,60.03536082595614,2026-01-19 15h34.09.292518 +0530,
,,,20,20,0,4,frames\Vid4_EM_T.png,frames\Vid4_L.png,['r'],1,[12.65418050000153],[None],5,2.1479778999928385,,,,,0,20,20,3,1757.299503599992,,20,Female,Right handed,Normal,,,,,,,,,,,,,,,,,,,,,,,,,,,,,,,,,,,,,,,,1757.2910301999946,1757.299503599992,1757.299503599992,1757.299503599992,1757.299503599992,1757.299503599992,1757.299503599992,1769.9676173999906,['r'],1,[12.65418050000153],[None],1769.9689440999937,1769.9827278000012,1769.9827278000012,1769.9827278000012,1772.1334019999922,5,2.1479778999928385,5,2.1479778999928385,,,,,,sub37_AB,001,2026-01-19_15h32.27.853,recognitionstage,,2025.1.1,60.03536082595614,2026-01-19 15h34.09.292518 +0530,
,,,21,21,0,20,frames\Vid20_EM_T.png,frames\Vid20_L.png,['l'],0,[6.201419999997597],[None],3,0.9651099000038812,,,,,0,21,21,19,1772.1682062999898,,20,Female,Right handed,Normal,,,,,,,,,,,,,,,,,,,,,,,,,,,,,,,,,,,,,,,,1772.153621999998,1772.1682062999898,1772.1682062999898,1772.1682062999898,1772.1682062999898,1772.1682062999898,1772.1682062999898,1778.3845230000006,['l'],0,[6.201419999997597],[None],1778.3853907000012,1778.3991868000012,1778.3991868000012,1778.3991868000012,1779.366331600002,3,0.9651099000038812,3,0.9651099000038812,,,,,,sub37_AB,001,2026-01-19_15h32.27.853,recognitionstage,,2025.1.1,60.03536082595614,2026-01-19 15h34.09.292518 +0530,
,,,22,22,0,26,frames\Vid26_EM_T.png,frames\Vid26_L.png,['l'],1,[8.282428399994387],[None],5,1.3311896999948658,,,,,0,22,22,25,1779.4153657999996,,20,Female,Right handed,Normal,,,,,,,,,,,,,,,,,,,,,,,,,,,,,,,,,,,,,,,,1779.3944782999897,1779.4153657999996,1779.4153657999996,1779.4153657999996,1779.4153657999996,1779.4153657999996,1779.4153657999996,1787.701493200002,['l'],1,[8.282428399994387],[None],1787.7022638999915,1787.7156481999991,1787.7156481999991,1787.7156481999991,1789.0493760999962,5,1.3311896999948658,5,1.3311896999948658,,,,,,sub37_AB,001,2026-01-19_15h32.27.853,recognitionstage,,2025.1.1,60.03536082595614,2026-01-19 15h34.09.292518 +0530,
,,,23,23,0,38,frames\Vid38_EM_T.png,frames\Vid38_L.png,['r'],1,[6.317936099992949],[None],5,1.4140536000049906,,,,,0,23,23,37,1789.067827299994,,20,Female,Right handed,Normal,,,,,,,,,,,,,,,,,,,,,,,,,,,,,,,,,,,,,,,,1789.0580267999903,1789.067827299994,1789.067827299994,1789.067827299994,1789.067827299994,1789.067827299994,1789.067827299994,1795.4015403999947,['r'],1,[6.317936099992949],[None],1795.4024912000023,1795.4155325000029,1795.4155325000029,1795.4155325000029,1796.8340763000015,5,1.4140536000049906,5,1.4140536000049906,,,,,,sub37_AB,001,2026-01-19_15h32.27.853,recognitionstage,,2025.1.1,60.03536082595614,2026-01-19 15h34.09.292518 +0530,
,,,24,24,0,12,frames\Vid12_EM_T.png,frames\Vid12_L.png,['r'],0,[13.965466100009507],[None],4,2.0806176999903983,,,,,0,24,24,11,1796.9163742999954,,20,Female,Right handed,Normal,,,,,,,,,,,,,,,,,,,,,,,,,,,,,,,,,,,,,,,,1796.8948501999985,1796.9163742999954,1796.9163742999954,1796.9163742999954,1796.9163742999954,1796.9163742999954,1796.9163742999954,1810.8853705999936,['r'],0,[13.965466100009507],[None],1810.8866730000009,1810.9140859000036,1810.9140859000036,1810.9140859000036,1812.9831531999953,4,2.0806176999903983,4,2.0806176999903983,,,,,,sub37_AB,001,2026-01-19_15h32.27.853,recognitionstage,,2025.1.1,60.03536082595614,2026-01-19 15h34.09.292518 +0530,
,,,25,25,0,2,frames\Vid2_BB_T.png,frames\Vid2_L.png,['l'],1,[4.629413799993927],[None],5,1.4647107999917353,,,,,0,25,25,1,1813.0522685000033,,20,Female,Right handed,Normal,,,,,,,,,,,,,,,,,,,,,,,,,,,,,,,,,,,,,,,,1813.0361672,1813.0522685000033,1813.0522685000033,1813.0522685000033,1813.0522685000033,1813.0522685000033,1813.0522685000033,1817.6841408000037,['l'],1,[4.629413799993927],[None],1817.6852084999991,1817.699678399993,1817.699678399993,1817.699678399993,1819.1670716999943,5,1.4647107999917353,5,1.4647107999917353,,,,,,sub37_AB,001,2026-01-19_15h32.27.853,recognitionstage,,2025.1.1,60.03536082595614,2026-01-19 15h34.09.292518 +0530,
,,,26,26,0,22,frames\Vid22_EM_T.png,frames\Vid22_L.png,['r'],1,[4.119180199995753],[None],5,1.4813814999943133,,,,,0,26,26,21,1819.2184826000012,,20,Female,Right handed,Normal,,,,,,,,,,,,,,,,,,,,,,,,,,,,,,,,,,,,,,,,1819.1950829999987,1819.2184826000012,1819.2184826000012,1819.2184826000012,1819.2184826000012,1819.2184826000012,1819.2184826000012,1823.3510222999903,['r'],1,[4.119180199995753],[None],1823.3520560999896,1823.366156899996,1823.366156899996,1823.366156899996,1824.8496099999902,5,1.4813814999943133,5,1.4813814999943133,,,,,,sub37_AB,001,2026-01-19_15h32.27.853,recognitionstage,,2025.1.1,60.03536082595614,2026-01-19 15h34.09.292518 +0530,
,,,27,27,0,16,frames\Vid16_EM_T.png,frames\Vid16_L.png,['r'],1,[4.589148500002921],[None],5,1.0312110999948345,,,,,0,27,27,15,1824.9165181999997,,20,Female,Right handed,Normal,,,,,,,,,,,,,,,,,,,,,,,,,,,,,,,,,,,,,,,,1824.9035008999927,1824.9165181999997,1824.9165181999997,1824.9165181999997,1824.9165181999997,1824.9165181999997,1824.9165181999997,1829.5174333000032,['r'],1,[4.589148500002921],[None],1829.518542299993,1829.5325060000032,1829.5325060000032,1829.5325060000032,1830.566571000003,5,1.0312110999948345,5,1.0312110999948345,,,,,,sub37_AB,001,2026-01-19_15h32.27.853,recognitionstage,,2025.1.1,60.03536082595614,2026-01-19 15h34.09.292518 +0530,
,,,28,28,0,10,frames\Vid10_BB_T.png,frames\Vid10_L.png,['r'],1,[5.269615299999714],[None],5,0.9151910000073258,,,,,0,28,28,9,1830.636010999995,,20,Female,Right handed,Normal,,,,,,,,,,,,,,,,,,,,,,,,,,,,,,,,,,,,,,,,1830.622604499993,1830.636010999995,1830.636010999995,1830.636010999995,1830.636010999995,1830.636010999995,1830.636010999995,1835.9175638000015,['r'],1,[5.269615299999714],[None],1835.9186019999906,1835.9323915999994,1835.9323915999994,1835.9323915999994,1836.8497972999903,5,0.9151910000073258,5,0.9151910000073258,,,,,,sub37_AB,001,2026-01-19_15h32.27.853,recognitionstage,,2025.1.1,60.03536082595614,2026-01-19 15h34.09.292518 +0530,
,,,29,29,0,11,frames\Vid11_EM_T.png,frames\Vid11_L.png,['l'],1,[3.3061358999984805],[None],5,1.431428900003084,,,,,0,29,29,10,1836.9195285000023,,20,Female,Right handed,Normal,,,,,,,,,,,,,,,,,,,,,,,,,,,,,,,,,,,,,,,,1836.9058039999945,1836.9195285000023,1836.9195285000023,1836.9195285000023,1836.9195285000023,1836.9195285000023,1836.9195285000023,1840.2345115999924,['l'],1,[3.3061358999984805],[None],1840.235552500002,1840.2487697000033,1840.2487697000033,1840.2487697000033,1841.6830346999923,5,1.431428900003084,5,1.431428900003084,,,,,,sub37_AB,001,2026-01-19_15h32.27.853,recognitionstage,,2025.1.1,60.03536082595614,2026-01-19 15h34.09.292518 +0530,
,,,30,30,0,21,frames\Vid21_BB_T.png,frames\Vid21_L.png,['l'],1,[5.859809400004451],[None],5,1.2329047000093851,,,,,0,30,30,20,1841.7179247000022,,20,Female,Right handed,Normal,,,,,,,,,,,,,,,,,,,,,,,,,,,,,,,,,,,,,,,,1841.708607099994,1841.7179247000022,1841.7179247000022,1841.7179247000022,1841.7179247000022,1841.7179247000022,1841.7179247000022,1847.5833107999933,['l'],1,[5.859809400004451],[None],1847.5838726999937,1847.5992763999966,1847.5992763999966,1847.5992763999966,1848.83326639999,5,1.2329047000093851,5,1.2329047000093851,,,,,,sub37_AB,001,2026-01-19_15h32.27.853,recognitionstage,,2025.1.1,60.03536082595614,2026-01-19 15h34.09.292518 +0530,
,,,31,31,0,34,frames\Vid34_BB_T.png,frames\Vid34_L.png,['r'],1,[3.6879249999910826],[None],5,1.0493520999880275,,,,,0,31,31,33,1848.8657355999894,,20,Female,Right handed,Normal,,,,,,,,,,,,,,,,,,,,,,,,,,,,,,,,,,,,,,,,1848.8563635000028,1848.8657355999894,1848.8657355999894,1848.8657355999894,1848.8657355999894,1848.8657355999894,1848.8657355999894,1852.5674919000012,['r'],1,[3.6879249999910826],[None],1852.5685039999953,1852.5825494000019,1852.5825494000019,1852.5825494000019,1853.6333123999939,5,1.0493520999880275,5,1.0493520999880275,,,,,,sub37_AB,001,2026-01-19_15h32.27.853,recognitionstage,,2025.1.1,60.03536082595614,2026-01-19 15h34.09.292518 +0530,
,,,32,32,0,14,frames\Vid14_BB_T.png,frames\Vid14_L.png,['l'],1,[3.7978338999964762],[None],5,0.9818431000021519,,,,,0,32,32,13,1853.6999983999995,,20,Female,Right handed,Normal,,,,,,,,,,,,,,,,,,,,,,,,,,,,,,,,,,,,,,,,1853.6930520000024,1853.6999983999995,1853.6999983999995,1853.6999983999995,1853.6999983999995,1853.6999983999995,1853.6999983999995,1857.5010633999918,['l'],1,[3.7978338999964762],[None],1857.502025099995,1857.5159204999945,1857.5159204999945,1857.5159204999945,1858.4995996999933,5,0.9818431000021519,5,0.9818431000021519,,,,,,sub37_AB,001,2026-01-19_15h32.27.853,recognitionstage,,2025.1.1,60.03536082595614,2026-01-19 15h34.09.292518 +0530,
,,,33,33,0,28,frames\Vid28_EM_T.png,frames\Vid28_L.png,['l'],1,[4.306146199989598],[None],5,1.082134899988887,,,,,0,33,33,27,1858.5515091999987,,20,Female,Right handed,Normal,,,,,,,,,,,,,,,,,,,,,,,,,,,,,,,,,,,,,,,,1858.527610499994,1858.5515091999987,1858.5515091999987,1858.5515091999987,1858.5515091999987,1858.5515091999987,1858.5515091999987,1862.867662699995,['l'],1,[4.306146199989598],[None],1862.86839399999,1862.882622899997,1862.882622899997,1862.882622899997,1863.9664668999903,5,1.082134899988887,5,1.082134899988887,,,,,,sub37_AB,001,2026-01-19_15h32.27.853,recognitionstage,,2025.1.1,60.03536082595614,2026-01-19 15h34.09.292518 +0530,
,,,34,34,0,32,frames\Vid32_EM_T.png,frames\Vid32_L.png,['r'],1,[3.4749738999962574],[None],5,1.0980027000041446,,,,,0,34,34,31,1863.9987381999963,,20,Female,Right handed,Normal,,,,,,,,,,,,,,,,,,,,,,,,,,,,,,,,,,,,,,,,1863.9908781999984,1863.9987381999963,1863.9987381999963,1863.9987381999963,1863.9987381999963,1863.9987381999963,1863.9987381999963,1867.4849419999955,['r'],1,[3.4749738999962574],[None],1867.4858718000032,1867.498898699996,1867.498898699996,1867.498898699996,1868.5994281000021,5,1.0980027000041446,5,1.0980027000041446,,,,,,sub37_AB,001,2026-01-19_15h32.27.853,recognitionstage,,2025.1.1,60.03536082595614,2026-01-19 15h34.09.292518 +0530,
,,,35,35,0,7,frames\Vid7_EM_T.png,frames\Vid7_L.png,['r'],0,[3.6866387000045506],[None],3,1.9652937999926507,,,,,0,35,35,6,1868.6670250000025,,20,Female,Right handed,Normal,,,,,,,,,,,,,,,,,,,,,,,,,,,,,,,,,,,,,,,,1868.6551734999957,1868.6670250000025,1868.6670250000025,1868.6670250000025,1868.6670250000025,1868.6670250000025,1868.6670250000025,1872.3672661000019,['r'],0,[3.6866387000045506],[None],1872.3681620999996,1872.3827067999955,1872.3827067999955,1872.3827067999955,1874.3502154000016,3,1.9652937999926507,3,1.9652937999926507,,,,,,sub37_AB,001,2026-01-19_15h32.27.853,recognitionstage,,2025.1.1,60.03536082595614,2026-01-19 15h34.09.292518 +0530,
,,,36,36,0,35,frames\Vid35_EM_T.png,frames\Vid35_L.png,['l'],1,[4.177251700006309],[None],5,1.2655837000056636,,,,,0,36,36,34,1874.3844956999965,,20,Female,Right handed,Normal,,,,,,,,,,,,,,,,,,,,,,,,,,,,,,,,,,,,,,,,1874.3742703000025,1874.3844956999965,1874.3844956999965,1874.3844956999965,1874.3844956999965,1874.3844956999965,1874.3844956999965,1878.567382299996,['l'],1,[4.177251700006309],[None],1878.5682566999894,1878.5820685999934,1878.5820685999934,1878.5820685999934,1879.8498018999962,5,1.2655837000056636,5,1.2655837000056636,,,,,,sub37_AB,001,2026-01-19_15h32.27.853,recognitionstage,,2025.1.1,60.03536082595614,2026-01-19 15h34.09.292518 +0530,
,,,37,37,0,15,frames\Vid15_BB_T.png,frames\Vid15_L.png,['l'],1,[9.277736800009734],[None],5,1.3148752999986755,,,,,0,37,37,14,1879.916000600002,,20,Female,Right handed,Normal,,,,,,,,,,,,,,,,,,,,,,,,,,,,,,,,,,,,,,,,1879.909811199992,1879.916000600002,1879.916000600002,1879.916000600002,1879.916000600002,1879.916000600002,1879.916000600002,1889.2010863000032,['l'],1,[9.277736800009734],[None],1889.2018378999928,1889.2154439000005,1889.2154439000005,1889.2154439000005,1890.533667900003,5,1.3148752999986755,5,1.3148752999986755,,,,,,sub37_AB,001,2026-01-19_15h32.27.853,recognitionstage,,2025.1.1,60.03536082595614,2026-01-19 15h34.09.292518 +0530,
,,,38,38,0,1,frames\Vid1_EM_T.png,frames\Vid1_L.png,['r'],1,[5.32649130000209],[None],5,1.4818838000064716,,,,,0,38,38,0,1890.6194220000034,,20,Female,Right handed,Normal,,,,,,,,,,,,,,,,,,,,,,,,,,,,,,,,,,,,,,,,1890.5946102000016,1890.6194220000034,1890.6194220000034,1890.6194220000034,1890.6194220000034,1890.6194220000034,1890.6194220000034,1895.9509913999937,['r'],1,[5.32649130000209],[None],1895.95190249999,1895.965859399992,1895.965859399992,1895.965859399992,1897.4499696999992,5,1.4818838000064716,5,1.4818838000064716,,,,,,sub37_AB,001,2026-01-19_15h32.27.853,recognitionstage,,2025.1.1,60.03536082595614,2026-01-19 15h34.09.292518 +0530,
,,,39,39,0,30,frames\Vid30_EM_T.png,frames\Vid30_L.png,['l'],1,[4.468341200001305],[None],4,1.7806512000097428,,,,,0,39,39,29,1897.485331399992,,20,Female,Right handed,Normal,,,,,,,,,,,,,,,,,,,,,,,,,,,,,,,,,,,,,,,,1897.4749831999943,1897.485331399992,1897.485331399992,1897.485331399992,1897.485331399992,1897.485331399992,1897.485331399992,1901.9682306000032,['l'],1,[4.468341200001305],[None],1901.969113500003,1901.9821284999925,1901.9821284999925,1901.9821284999925,1903.766537699994,4,1.7806512000097428,4,1.7806512000097428,,,,,,sub37_AB,001,2026-01-19_15h32.27.853,recognitionstage,,2025.1.1,60.03536082595614,2026-01-19 15h34.09.292518 +0530,
,,,,,,,,,,,,,,,,,,,,,,,,,20,Female,Right handed,Normal,,,,,,,,,,,,,,,,,,,,,,,,,,,,,,,,,,,,,,,,,,,,,,,,,,,,,,,,,,,,,1903.7666086999961,1903.782449499995,1903.782449499995,1923.7678035999998,None,sub37_AB,001,2026-01-19_15h32.27.853,recognitionstage,,2025.1.1,60.03536082595614,2026-01-19 15h34.09.292518 +0530,
