path,duration,is_repeat,thisN,thisTrialN,thisRepN,movie_id,target_img,lure_img,resp.keys,resp.corr,resp.rt,resp.duration,conf_radio.response,conf_radio.rt,movie.thisRepN,movie.thisTrialN,movie.thisN,movie.thisIndex,recogloop.thisRepN,recogloop.thisTrialN,recogloop.thisN,recogloop.thisIndex,thisRow.t,notes,age,gender,handedness,vision,caffeine_2h,alcohol_smoke_12h,demographics.started,demographics.stopped,Instructions.started,text1.started,key_resp.started,Instructions.stopped,key_resp.keys,key_resp.rt,key_resp.duration,instruction_2.started,text2.started,key_resp_2.started,instruction_2.stopped,key_resp_2.keys,key_resp_2.rt,key_resp_2.duration,Videos.started,movie_2.started,vigilance_resp.started,movie_2.stopped,Videos.stopped,movie.vigilance_resp.keys,vigilance_pressed,vigilance_correct,ISI.started,text.started,ISI.stopped,text.stopped,movie.vigilance_resp.rt,movie.vigilance_resp.duration,recognition.started,text_4.started,key_resp_3.started,recognition.stopped,key_resp_3.keys,key_resp_3.rt,key_resp_3.duration,recognition_task.started,leftimage.started,rightimage.started,resp.started,frames_question.started,right_label.started,left_label.started,recognition_task.stopped,recogloop.resp.keys,recogloop.resp.corr,recogloop.resp.rt,recogloop.resp.duration,confidence.started,conf_text.started,conf_radio.started,conf_label.started,confidence.stopped,recogloop.conf_radio.response,recogloop.conf_radio.rt,confidence,confidence_rt,thank_you.started,text_6.started,key_resp_4.started,thank_you.stopped,key_resp_4.keys,participant,session,date,expName,expVersion,psychopyVersion,frameRate,expStart,...103
,,,,,,,,,,,,,,,,,,,,,,,,,23,Male,Right handed,Normal,Caffeine consumed in last 2 hours?,Alcohol or smoking in last 12 hours?,0.01261740000336431,0.015114199995878153,,,,,,,,,,,,,,,,,,,,,,,,,,,,,,,,,,,,,,,,,,,,,,,,,,,,,,,,,,,,,,sub33_AB,001,2026-01-19_10h23.37.172,recognitionstage,,2025.1.1,60.09846532148611,2026-01-19 10h24.52.137843 +0530,
,,,,,,,,,,,,,,,,,,,,,,,,,23,Male,Right handed,Normal,,,,,0.015137299997149967,0.03147549999994226,0.03147549999994226,27.233735699992394,space,27.199974400005885,None,,,,,,,,,,,,,,,,,,,,,,,,,,,,,,,,,,,,,,,,,,,,,,,,,,,,,,,sub33_AB,001,2026-01-19_10h23.37.172,recognitionstage,,2025.1.1,60.09846532148611,2026-01-19 10h24.52.137843 +0530,
,,,,,,,,,,,,,,,,,,,,,,,,,23,Male,Right handed,Normal,,,,,,,,,,,,27.23379009999917,27.24937360000331,27.24937360000331,55.783001999996486,space,28.52624360000482,None,,,,,,,,,,,,,,,,,,,,,,,,,,,,,,,,,,,,,,,,,,,,,,,,sub33_AB,001,2026-01-19_10h23.37.172,recognitionstage,,2025.1.1,60.09846532148611,2026-01-19 10h24.52.137843 +0530,
abrupt_videos\abrupt_6.mp4,31,0,44,44,0,,,,,,,,,,0,44,44,6,,,,,1536.1309570000012,,23,Male,Right handed,Normal,,,,,,,,,,,,,,,,,,,1536.0812238999933,1536.1309570000012,1536.1309570000012,1567.5306192999997,1567.3819532999914,None,0,1,1567.5175735999946,1567.5306192999997,1570.0165286999982,1570.031945900002,2.1633811999927275,None,1570.0166094000015,1570.031945900002,1570.031945900002,1602.733763600001,space,32.69585209999059,None,,,,,,,,,,,,,,,,,,,,,,,,,,,sub33_AB,001,2026-01-19_10h23.37.172,recognitionstage,,2025.1.1,60.09846532148611,2026-01-19 10h24.52.137843 +0530,
,,,0,0,0,29,frames\Vid29_BB_T.png,frames\Vid29_L.png,['l'],1,[5.364167399995495],[None],4,4.715406500006793,,,,,0,0,0,28,1602.7632862000028,,23,Male,Right handed,Normal,,,,,,,,,,,,,,,,,,,,,,,,,,,,,,,,,,,,,,,,1602.7541415000014,1602.7632862000028,1602.7632862000028,1602.7632862000028,1602.7632862000028,1602.7632862000028,1602.7632862000028,1608.1327891999972,['l'],1,[5.364167399995495],[None],1608.1337038999918,1608.1480673999904,1608.1480673999904,1608.1480673999904,1612.8654062999994,4,4.715406500006793,4,4.715406500006793,,,,,,sub33_AB,001,2026-01-19_10h23.37.172,recognitionstage,,2025.1.1,60.09846532148611,2026-01-19 10h24.52.137843 +0530,
,,,1,1,0,21,frames\Vid21_BB_T.png,frames\Vid21_L.png,['l'],1,[6.390341999998782],[None],5,1.7982546999992337,,,,,0,1,1,20,1612.8969367999962,,23,Male,Right handed,Normal,,,,,,,,,,,,,,,,,,,,,,,,,,,,,,,,,,,,,,,,1612.8836673999904,1612.8969367999962,1612.8969367999962,1612.8969367999962,1612.8969367999962,1612.8969367999962,1612.8969367999962,1619.2994973000023,['l'],1,[6.390341999998782],[None],1619.3004177999974,1619.3146848999895,1619.3146848999895,1619.3146848999895,1621.1154094999947,5,1.7982546999992337,5,1.7982546999992337,,,,,,sub33_AB,001,2026-01-19_10h23.37.172,recognitionstage,,2025.1.1,60.09846532148611,2026-01-19 10h24.52.137843 +0530,
,,,2,2,0,7,frames\Vid7_EM_T.png,frames\Vid7_L.png,['r'],0,[10.642154400004074],[None],4,2.3810186000046087,,,,,0,2,2,6,1621.1654675000027,,23,Male,Right handed,Normal,,,,,,,,,,,,,,,,,,,,,,,,,,,,,,,,,,,,,,,,1621.1579972999898,1621.1654675000027,1621.1654675000027,1621.1654675000027,1621.1654675000027,1621.1654675000027,1621.1654675000027,1631.8185618999996,['r'],0,[10.642154400004074],[None],1631.8199860000022,1631.8461982000008,1631.8461982000008,1631.8461982000008,1634.2147186999937,4,2.3810186000046087,4,2.3810186000046087,,,,,,sub33_AB,001,2026-01-19_10h23.37.172,recognitionstage,,2025.1.1,60.09846532148611,2026-01-19 10h24.52.137843 +0530,
,,,3,3,0,28,frames\Vid28_EM_T.png,frames\Vid28_L.png,['l'],1,[3.3367190999997547],[None],5,1.6460495999926934,,,,,0,3,3,27,1634.246918299992,,23,Male,Right handed,Normal,,,,,,,,,,,,,,,,,,,,,,,,,,,,,,,,,,,,,,,,1634.2353973999998,1634.246918299992,1634.246918299992,1634.246918299992,1634.246918299992,1634.246918299992,1634.246918299992,1637.6013551999931,['l'],1,[3.3367190999997547],[None],1637.602736300003,1637.6143856999988,1637.6143856999988,1637.6143856999988,1639.265161599993,5,1.6460495999926934,5,1.6460495999926934,,,,,,sub33_AB,001,2026-01-19_10h23.37.172,recognitionstage,,2025.1.1,60.09846532148611,2026-01-19 10h24.52.137843 +0530,
,,,4,4,0,19,frames\Vid19_BB_T.png,frames\Vid19_L.png,['r'],0,[10.796790500011411],[None],2,1.7627053000032902,,,,,0,4,4,18,1639.2828018,,23,Male,Right handed,Normal,,,,,,,,,,,,,,,,,,,,,,,,,,,,,,,,,,,,,,,,1639.2756250999955,1639.2828018,1639.2828018,1639.2828018,1639.2828018,1639.2828018,1639.2828018,1650.0845509999926,['r'],0,[10.796790500011411],[None],1650.085804199989,1650.113058499992,1650.113058499992,1650.113058499992,1651.8658460000006,2,1.7627053000032902,2,1.7627053000032902,,,,,,sub33_AB,001,2026-01-19_10h23.37.172,recognitionstage,,2025.1.1,60.09846532148611,2026-01-19 10h24.52.137843 +0530,
,,,5,5,0,40,frames\Vid40_EM_T.png,frames\Vid40_L.png,['r'],1,[3.3721977999957744],[None],4,3.3142568999901414,,,,,0,5,5,39,1651.8831925999984,,23,Male,Right handed,Normal,,,,,,,,,,,,,,,,,,,,,,,,,,,,,,,,,,,,,,,,1651.874783799998,1651.8831925999984,1651.8831925999984,1651.8831925999984,1651.8831925999984,1651.8831925999984,1651.8831925999984,1655.2672384000034,['r'],1,[3.3721977999957744],[None],1655.268310799991,1655.2809882000001,1655.2809882000001,1655.2809882000001,1658.599263199998,4,3.3142568999901414,4,3.3142568999901414,,,,,,sub33_AB,001,2026-01-19_10h23.37.172,recognitionstage,,2025.1.1,60.09846532148611,2026-01-19 10h24.52.137843 +0530,
,,,6,6,0,16,frames\Vid16_EM_T.png,frames\Vid16_L.png,['r'],0,[8.623117099996307],[None],3,2.782787499992992,,,,,0,6,6,15,1658.6482923000003,,23,Male,Right handed,Normal,,,,,,,,,,,,,,,,,,,,,,,,,,,,,,,,,,,,,,,,1658.637983499997,1658.6482923000003,1658.6482923000003,1658.6482923000003,1658.6482923000003,1658.6482923000003,1658.6482923000003,1667.2830489999906,['r'],0,[8.623117099996307],[None],1667.283982199995,1667.2982977999927,1667.2982977999927,1667.2982977999927,1670.081561400002,3,2.782787499992992,3,2.782787499992992,,,,,,sub33_AB,001,2026-01-19_10h23.37.172,recognitionstage,,2025.1.1,60.09846532148611,2026-01-19 10h24.52.137843 +0530,
,,,7,7,0,18,frames\Vid18_EM_T.png,frames\Vid18_L.png,['l'],1,[12.84877029999916],[None],4,2.04809280000336,,,,,0,7,7,17,1670.1026253000018,,23,Male,Right handed,Normal,,,,,,,,,,,,,,,,,,,,,,,,,,,,,,,,,,,,,,,,1670.0920160999958,1670.1026253000018,1670.1026253000018,1670.1026253000018,1670.1026253000018,1670.1026253000018,1670.1026253000018,1682.9667266000033,['l'],1,[12.84877029999916],[None],1682.9680110999907,1682.9815652999969,1682.9815652999969,1682.9815652999969,1685.031934300001,4,2.04809280000336,4,2.04809280000336,,,,,,sub33_AB,001,2026-01-19_10h23.37.172,recognitionstage,,2025.1.1,60.09846532148611,2026-01-19 10h24.52.137843 +0530,
,,,8,8,0,15,frames\Vid15_BB_T.png,frames\Vid15_L.png,['r'],0,[12.252790300000925],[None],3,1.8650314999977127,,,,,0,8,8,14,1685.0986087999918,,23,Male,Right handed,Normal,,,,,,,,,,,,,,,,,,,,,,,,,,,,,,,,,,,,,,,,1685.0794938999898,1685.0986087999918,1685.0986087999918,1685.0986087999918,1685.0986087999918,1685.0986087999918,1685.0986087999918,1697.3663203000033,['r'],0,[12.252790300000925],[None],1697.3671802000026,1697.3814617000025,1697.3814617000025,1697.3814617000025,1699.2485810999933,3,1.8650314999977127,3,1.8650314999977127,,,,,,sub33_AB,001,2026-01-19_10h23.37.172,recognitionstage,,2025.1.1,60.09846532148611,2026-01-19 10h24.52.137843 +0530,
,,,9,9,0,2,frames\Vid2_BB_T.png,frames\Vid2_L.png,['r'],1,[4.866004800001974],[None],5,1.4643716999999015,,,,,0,9,9,1,1699.3014459999977,,23,Male,Right handed,Normal,,,,,,,,,,,,,,,,,,,,,,,,,,,,,,,,,,,,,,,,1699.2874579999916,1699.3014459999977,1699.3014459999977,1699.3014459999977,1699.3014459999977,1699.3014459999977,1699.3014459999977,1704.183920800002,['r'],1,[4.866004800001974],[None],1704.1850430999912,1704.197703400001,1704.197703400001,1704.197703400001,1705.6649821000028,5,1.4643716999999015,5,1.4643716999999015,,,,,,sub33_AB,001,2026-01-19_10h23.37.172,recognitionstage,,2025.1.1,60.09846532148611,2026-01-19 10h24.52.137843 +0530,
,,,10,10,0,34,frames\Vid34_BB_T.png,frames\Vid34_L.png,['r'],1,[8.145000300006359],[None],4,1.6484312999964459,,,,,0,10,10,33,1705.686411799994,,23,Male,Right handed,Normal,,,,,,,,,,,,,,,,,,,,,,,,,,,,,,,,,,,,,,,,1705.6739604000031,1705.686411799994,1705.686411799994,1705.686411799994,1705.686411799994,1705.686411799994,1705.686411799994,1713.8331918999902,['r'],1,[8.145000300006359],[None],1713.8342346999998,1713.8480867999897,1713.8480867999897,1713.8480867999897,1715.498477000001,4,1.6484312999964459,4,1.6484312999964459,,,,,,sub33_AB,001,2026-01-19_10h23.37.172,recognitionstage,,2025.1.1,60.09846532148611,2026-01-19 10h24.52.137843 +0530,
,,,11,11,0,20,frames\Vid20_EM_T.png,frames\Vid20_L.png,['r'],1,[2.994743600007496],[None],5,1.431559999997262,,,,,0,11,11,19,1715.5166946999962,,23,Male,Right handed,Normal,,,,,,,,,,,,,,,,,,,,,,,,,,,,,,,,,,,,,,,,1715.5046724999993,1715.5166946999962,1715.5166946999962,1715.5166946999962,1715.5166946999962,1715.5166946999962,1715.5166946999962,1718.517215499989,['r'],1,[2.994743600007496],[None],1718.518346500001,1718.5309822999989,1718.5309822999989,1718.5309822999989,1719.9655767999939,5,1.431559999997262,5,1.431559999997262,,,,,,sub33_AB,001,2026-01-19_10h23.37.172,recognitionstage,,2025.1.1,60.09846532148611,2026-01-19 10h24.52.137843 +0530,
,,,12,12,0,14,frames\Vid14_BB_T.png,frames\Vid14_L.png,['r'],1,[7.222950800001854],[None],5,1.6144293999968795,,,,,0,12,12,13,1720.0325131999998,,23,Male,Right handed,Normal,,,,,,,,,,,,,,,,,,,,,,,,,,,,,,,,,,,,,,,,1720.010994700002,1720.0325131999998,1720.0325131999998,1720.0325131999998,1720.0325131999998,1720.0325131999998,1720.0325131999998,1727.2668262999941,['r'],1,[7.222950800001854],[None],1727.267927199995,1727.2813633999904,1727.2813633999904,1727.2813633999904,1728.8982245999941,5,1.6144293999968795,5,1.6144293999968795,,,,,,sub33_AB,001,2026-01-19_10h23.37.172,recognitionstage,,2025.1.1,60.09846532148611,2026-01-19 10h24.52.137843 +0530,
,,,13,13,0,10,frames\Vid10_BB_T.png,frames\Vid10_L.png,['r'],1,[5.551790600002278],[None],5,2.115836000011768,,,,,0,13,13,9,1728.9515296000027,,23,Male,Right handed,Normal,,,,,,,,,,,,,,,,,,,,,,,,,,,,,,,,,,,,,,,,1728.9405090999935,1728.9515296000027,1728.9515296000027,1728.9515296000027,1728.9515296000027,1728.9515296000027,1728.9515296000027,1734.5164693999977,['r'],1,[5.551790600002278],[None],1734.5173683999892,1734.5315829000028,1734.5315829000028,1734.5315829000028,1736.6483896999998,5,2.115836000011768,5,2.115836000011768,,,,,,sub33_AB,001,2026-01-19_10h23.37.172,recognitionstage,,2025.1.1,60.09846532148611,2026-01-19 10h24.52.137843 +0530,
,,,14,14,0,9,frames\Vid9_EM_T.png,frames\Vid9_L.png,['l'],1,[4.113595200004056],[None],4,2.2805864999972982,,,,,0,14,14,8,1736.701742499994,,23,Male,Right handed,Normal,,,,,,,,,,,,,,,,,,,,,,,,,,,,,,,,,,,,,,,,1736.6860794999957,1736.701742499994,1736.701742499994,1736.701742499994,1736.701742499994,1736.701742499994,1736.701742499994,1740.8171172000002,['l'],1,[4.113595200004056],[None],1740.8180668999994,1740.8310224000015,1740.8310224000015,1740.8310224000015,1743.1153789999953,4,2.2805864999972982,4,2.2805864999972982,,,,,,sub33_AB,001,2026-01-19_10h23.37.172,recognitionstage,,2025.1.1,60.09846532148611,2026-01-19 10h24.52.137843 +0530,
,,,15,15,0,24,frames\Vid24_BB_T.png,frames\Vid24_L.png,['r'],1,[5.665176300011808],[None],5,1.9638369000022067,,,,,0,15,15,23,1743.1503123000002,,23,Male,Right handed,Normal,,,,,,,,,,,,,,,,,,,,,,,,,,,,,,,,,,,,,,,,1743.1273882999958,1743.1503123000002,1743.1503123000002,1743.1503123000002,1743.1503123000002,1743.1503123000002,1743.1503123000002,1748.8172542999964,['r'],1,[5.665176300011808],[None],1748.818480499991,1748.831535099991,1748.831535099991,1748.831535099991,1750.7988581999962,5,1.9638369000022067,5,1.9638369000022067,,,,,,sub33_AB,001,2026-01-19_10h23.37.172,recognitionstage,,2025.1.1,60.09846532148611,2026-01-19 10h24.52.137843 +0530,
,,,16,16,0,25,frames\Vid25_BB_T.png,frames\Vid25_L.png,['r'],1,[2.2723303999955533],[None],5,1.5472585999959847,,,,,0,16,16,24,1750.8312608999986,,23,Male,Right handed,Normal,,,,,,,,,,,,,,,,,,,,,,,,,,,,,,,,,,,,,,,,1750.809593500002,1750.8312608999986,1750.8312608999986,1750.8312608999986,1750.8312608999986,1750.8312608999986,1750.8312608999986,1753.1172031000024,['r'],1,[2.2723303999955533],[None],1753.1181260000012,1753.1312454,1753.1312454,1753.1312454,1754.6829011999944,5,1.5472585999959847,5,1.5472585999959847,,,,,,sub33_AB,001,2026-01-19_10h23.37.172,recognitionstage,,2025.1.1,60.09846532148611,2026-01-19 10h24.52.137843 +0530,
,,,17,17,0,23,frames\Vid23_EM_T.png,frames\Vid23_L.png,['l'],1,[2.6208899000048405],[None],5,2.266188699999475,,,,,0,17,17,22,1754.7144877999963,,23,Male,Right handed,Normal,,,,,,,,,,,,,,,,,,,,,,,,,,,,,,,,,,,,,,,,1754.6991865000018,1754.7144877999963,1754.7144877999963,1754.7144877999963,1754.7144877999963,1754.7144877999963,1754.7144877999963,1757.3486276999902,['l'],1,[2.6208899000048405],[None],1757.3492606999935,1757.3648083000007,1757.3648083000007,1757.3648083000007,1759.6323454999947,5,2.266188699999475,5,2.266188699999475,,,,,,sub33_AB,001,2026-01-19_10h23.37.172,recognitionstage,,2025.1.1,60.09846532148611,2026-01-19 10h24.52.137843 +0530,
,,,18,18,0,26,frames\Vid26_EM_T.png,frames\Vid26_L.png,['l'],1,[6.406692500007921],[None],5,1.6954847000015434,,,,,0,18,18,25,1759.6649457000021,,23,Male,Right handed,Normal,,,,,,,,,,,,,,,,,,,,,,,,,,,,,,,,,,,,,,,,1759.6469376000023,1759.6649457000021,1759.6649457000021,1759.6649457000021,1759.6649457000021,1759.6649457000021,1759.6649457000021,1766.085410300002,['l'],1,[6.406692500007921],[None],1766.086939899993,1766.1135905999981,1766.1135905999981,1766.1135905999981,1767.798867199992,5,1.6954847000015434,5,1.6954847000015434,,,,,,sub33_AB,001,2026-01-19_10h23.37.172,recognitionstage,,2025.1.1,60.09846532148611,2026-01-19 10h24.52.137843 +0530,
,,,19,19,0,36,frames\Vid36_BB_T.png,frames\Vid36_L.png,['l'],0,[7.672038499993505],[None],3,1.5479412999993656,,,,,0,19,19,35,1767.8313957999926,,23,Male,Right handed,Normal,,,,,,,,,,,,,,,,,,,,,,,,,,,,,,,,,,,,,,,,1767.810779499996,1767.8313957999926,1767.8313957999926,1767.8313957999926,1767.8313957999926,1767.8313957999926,1767.8313957999926,1775.5165783999983,['l'],0,[7.672038499993505],[None],1775.5173998999962,1775.531123599998,1775.531123599998,1775.531123599998,1777.082222099998,3,1.5479412999993656,3,1.5479412999993656,,,,,,sub33_AB,001,2026-01-19_10h23.37.172,recognitionstage,,2025.1.1,60.09846532148611,2026-01-19 10h24.52.137843 +0530,
,,,20,20,0,3,frames\Vid3_BB_T.png,frames\Vid3_L.png,['r'],1,[6.146723800004111],[None],5,1.4629286999988835,,,,,0,20,20,2,1777.1328525999998,,23,Male,Right handed,Normal,,,,,,,,,,,,,,,,,,,,,,,,,,,,,,,,,,,,,,,,1777.1212831000012,1777.1328525999998,1777.1328525999998,1777.1328525999998,1777.1328525999998,1777.1328525999998,1777.1328525999998,1783.284864000001,['r'],1,[6.146723800004111],[None],1783.2860348999966,1783.297696499998,1783.297696499998,1783.297696499998,1784.7651245000015,5,1.4629286999988835,5,1.4629286999988835,,,,,,sub33_AB,001,2026-01-19_10h23.37.172,recognitionstage,,2025.1.1,60.09846532148611,2026-01-19 10h24.52.137843 +0530,
,,,21,21,0,27,frames\Vid27_BB_T.png,frames\Vid27_L.png,['l'],1,[3.2295666999998502],[None],5,2.3806148000003304,,,,,0,21,21,26,1784.7858607999951,,23,Male,Right handed,Normal,,,,,,,,,,,,,,,,,,,,,,,,,,,,,,,,,,,,,,,,1784.7755687000026,1784.7858607999951,1784.7858607999951,1784.7858607999951,1784.7858607999951,1784.7858607999951,1784.7858607999951,1788.0170673999964,['l'],1,[3.2295666999998502],[None],1788.0179543999984,1788.0311433000024,1788.0311433000024,1788.0311433000024,1790.4151981000032,5,2.3806148000003304,5,2.3806148000003304,,,,,,sub33_AB,001,2026-01-19_10h23.37.172,recognitionstage,,2025.1.1,60.09846532148611,2026-01-19 10h24.52.137843 +0530,
,,,22,22,0,37,frames\Vid37_BB_T.png,frames\Vid37_L.png,['r'],1,[5.143439399995259],[None],5,1.0978860000032,,,,,0,22,22,36,1790.4479731000029,,23,Male,Right handed,Normal,,,,,,,,,,,,,,,,,,,,,,,,,,,,,,,,,,,,,,,,1790.4263938999939,1790.4479731000029,1790.4479731000029,1790.4479731000029,1790.4479731000029,1790.4479731000029,1790.4479731000029,1795.6003627000027,['r'],1,[5.143439399995259],[None],1795.6013237000006,1795.6143008999934,1795.6143008999934,1795.6143008999934,1796.7154856999987,5,1.0978860000032,5,1.0978860000032,,,,,,sub33_AB,001,2026-01-19_10h23.37.172,recognitionstage,,2025.1.1,60.09846532148611,2026-01-19 10h24.52.137843 +0530,
,,,23,23,0,13,frames\Vid13_BB_T.png,frames\Vid13_L.png,['r'],1,[4.290531999999075],[None],4,2.079345399994054,,,,,0,23,23,12,1796.7652295000007,,23,Male,Right handed,Normal,,,,,,,,,,,,,,,,,,,,,,,,,,,,,,,,,,,,,,,,1796.751049300001,1796.7652295000007,1796.7652295000007,1796.7652295000007,1796.7652295000007,1796.7652295000007,1796.7652295000007,1801.0681643999997,['r'],1,[4.290531999999075],[None],1801.069781699989,1801.0965200999926,1801.0965200999926,1801.0965200999926,1803.1656070000026,4,2.079345399994054,4,2.079345399994054,,,,,,sub33_AB,001,2026-01-19_10h23.37.172,recognitionstage,,2025.1.1,60.09846532148611,2026-01-19 10h24.52.137843 +0530,
,,,24,24,0,31,frames\Vid31_EM_T.png,frames\Vid31_L.png,['l'],1,[3.7896444000070915],[None],5,1.315483900005347,,,,,0,24,24,30,1803.1857340999995,,23,Male,Right handed,Normal,,,,,,,,,,,,,,,,,,,,,,,,,,,,,,,,,,,,,,,,1803.1754254999978,1803.1857340999995,1803.1857340999995,1803.1857340999995,1803.1857340999995,1803.1857340999995,1803.1857340999995,1806.9827704999916,['l'],1,[3.7896444000070915],[None],1806.9835127999977,1806.9977272999968,1806.9977272999968,1806.9977272999968,1808.3159477000008,5,1.315483900005347,5,1.315483900005347,,,,,,sub33_AB,001,2026-01-19_10h23.37.172,recognitionstage,,2025.1.1,60.09846532148611,2026-01-19 10h24.52.137843 +0530,
,,,25,25,0,12,frames\Vid12_EM_T.png,frames\Vid12_L.png,['r'],1,[4.2976722000021255],[None],5,0.98273099999642,,,,,0,25,25,11,1808.3818377999996,,23,Male,Right handed,Normal,,,,,,,,,,,,,,,,,,,,,,,,,,,,,,,,,,,,,,,,1808.3601202999998,1808.3818377999996,1808.3818377999996,1808.3818377999996,1808.3818377999996,1808.3818377999996,1808.3818377999996,1812.6829971999978,['r'],1,[4.2976722000021255],[None],1812.6838778999954,1812.6979654000024,1812.6979654000024,1812.6979654000024,1813.6821074000036,5,0.98273099999642,5,0.98273099999642,,,,,,sub33_AB,001,2026-01-19_10h23.37.172,recognitionstage,,2025.1.1,60.09846532148611,2026-01-19 10h24.52.137843 +0530,
,,,26,26,0,33,frames\Vid33_BB_T.png,frames\Vid33_L.png,['r'],1,[2.5205859999987297],[None],5,1.2793726000090828,,,,,0,26,26,32,1813.7028940000018,,23,Male,Right handed,Normal,,,,,,,,,,,,,,,,,,,,,,,,,,,,,,,,,,,,,,,,1813.6918158999906,1813.7028940000018,1813.7028940000018,1813.7028940000018,1813.7028940000018,1813.7028940000018,1813.7028940000018,1816.2343496999965,['r'],1,[2.5205859999987297],[None],1816.2359881000011,1816.247835599992,1816.247835599992,1816.247835599992,1817.5319863999903,5,1.2793726000090828,5,1.2793726000090828,,,,,,sub33_AB,001,2026-01-19_10h23.37.172,recognitionstage,,2025.1.1,60.09846532148611,2026-01-19 10h24.52.137843 +0530,
,,,27,27,0,39,frames\Vid39_BB_T.png,frames\Vid39_L.png,['l'],1,[12.354076499992516],[None],4,1.9308423999900697,,,,,0,27,27,38,1817.5493658999912,,23,Male,Right handed,Normal,,,,,,,,,,,,,,,,,,,,,,,,,,,,,,,,,,,,,,,,1817.5408024999924,1817.5493658999912,1817.5493658999912,1817.5493658999912,1817.5493658999912,1817.5493658999912,1817.5493658999912,1829.9167999999918,['l'],1,[12.354076499992516],[None],1829.917921699991,1829.9312693999964,1829.9312693999964,1829.9312693999964,1831.8656935000035,4,1.9308423999900697,4,1.9308423999900697,,,,,,sub33_AB,001,2026-01-19_10h23.37.172,recognitionstage,,2025.1.1,60.09846532148611,2026-01-19 10h24.52.137843 +0530,
,,,28,28,0,5,frames\Vid5_EM_T.png,frames\Vid5_L.png,['l'],1,[3.852576699995552],[None],5,1.4811348000075668,,,,,0,28,28,4,1831.9149366999918,,23,Male,Right handed,Normal,,,,,,,,,,,,,,,,,,,,,,,,,,,,,,,,,,,,,,,,1831.898106499997,1831.9149366999918,1831.9149366999918,1831.9149366999918,1831.9149366999918,1831.9149366999918,1831.9149366999918,1835.7837239999935,['l'],1,[3.852576699995552],[None],1835.7847386999929,1835.812789699994,1835.812789699994,1835.812789699994,1837.2818379999953,5,1.4811348000075668,5,1.4811348000075668,,,,,,sub33_AB,001,2026-01-19_10h23.37.172,recognitionstage,,2025.1.1,60.09846532148611,2026-01-19 10h24.52.137843 +0530,
,,,29,29,0,8,frames\Vid8_BB_T.png,frames\Vid8_L.png,['l'],1,[4.177549200001522],[None],5,1.3462453999964055,,,,,0,29,29,7,1837.3340095000021,,23,Male,Right handed,Normal,,,,,,,,,,,,,,,,,,,,,,,,,,,,,,,,,,,,,,,,1837.3198246999964,1837.3340095000021,1837.3340095000021,1837.3340095000021,1837.3340095000021,1837.3340095000021,1837.3340095000021,1841.5183403999981,['l'],1,[4.177549200001522],[None],1841.520087099998,1841.5460724000004,1841.5460724000004,1841.5460724000004,1842.8821683999995,5,1.3462453999964055,5,1.3462453999964055,,,,,,sub33_AB,001,2026-01-19_10h23.37.172,recognitionstage,,2025.1.1,60.09846532148611,2026-01-19 10h24.52.137843 +0530,
,,,30,30,0,1,frames\Vid1_EM_T.png,frames\Vid1_L.png,['l'],1,[15.192531599997892],[None],3,1.1986418000014964,,,,,0,30,30,0,1842.9512132999953,,23,Male,Right handed,Normal,,,,,,,,,,,,,,,,,,,,,,,,,,,,,,,,,,,,,,,,1842.9316766999982,1842.9512132999953,1842.9512132999953,1842.9512132999953,1842.9512132999953,1842.9512132999953,1842.9512132999953,1858.1497535999952,['l'],1,[15.192531599997892],[None],1858.1506711999973,1858.1647108000034,1858.1647108000034,1858.1647108000034,1859.3655434999964,3,1.1986418000014964,3,1.1986418000014964,,,,,,sub33_AB,001,2026-01-19_10h23.37.172,recognitionstage,,2025.1.1,60.09846532148611,2026-01-19 10h24.52.137843 +0530,
,,,31,31,0,11,frames\Vid11_EM_T.png,frames\Vid11_L.png,['l'],1,[4.820514499995625],[None],5,1.1159485999960452,,,,,0,31,31,10,1859.4349670999945,,23,Male,Right handed,Normal,,,,,,,,,,,,,,,,,,,,,,,,,,,,,,,,,,,,,,,,1859.4096131999977,1859.4349670999945,1859.4349670999945,1859.4349670999945,1859.4349670999945,1859.4349670999945,1859.4349670999945,1864.2663455000002,['l'],1,[4.820514499995625],[None],1864.2672974000016,1864.2822723999998,1864.2822723999998,1864.2822723999998,1865.3985927999893,5,1.1159485999960452,5,1.1159485999960452,,,,,,sub33_AB,001,2026-01-19_10h23.37.172,recognitionstage,,2025.1.1,60.09846532148611,2026-01-19 10h24.52.137843 +0530,
,,,32,32,0,4,frames\Vid4_EM_T.png,frames\Vid4_L.png,['l'],0,[9.371825099995476],[None],4,1.3313606000010623,,,,,0,32,32,3,1865.4677434999903,,23,Male,Right handed,Normal,,,,,,,,,,,,,,,,,,,,,,,,,,,,,,,,,,,,,,,,1865.4463037999958,1865.4677434999903,1865.4677434999903,1865.4677434999903,1865.4677434999903,1865.4677434999903,1865.4677434999903,1874.850942399993,['l'],0,[9.371825099995476],[None],1874.8518443999928,1874.8646489999956,1874.8646489999956,1874.8646489999956,1876.199045699992,4,1.3313606000010623,4,1.3313606000010623,,,,,,sub33_AB,001,2026-01-19_10h23.37.172,recognitionstage,,2025.1.1,60.09846532148611,2026-01-19 10h24.52.137843 +0530,
,,,33,33,0,38,frames\Vid38_EM_T.png,frames\Vid38_L.png,['r'],0,[10.37354860000778],[None],3,1.2963824000034947,,,,,0,33,33,37,1876.2340804999985,,23,Male,Right handed,Normal,,,,,,,,,,,,,,,,,,,,,,,,,,,,,,,,,,,,,,,,1876.210888799993,1876.2340804999985,1876.2340804999985,1876.2340804999985,1876.2340804999985,1876.2340804999985,1876.2340804999985,1886.6181017999916,['r'],0,[10.37354860000778],[None],1886.6194614999986,1886.6462496000022,1886.6462496000022,1886.6462496000022,1887.9326872999955,3,1.2963824000034947,3,1.2963824000034947,,,,,,sub33_AB,001,2026-01-19_10h23.37.172,recognitionstage,,2025.1.1,60.09846532148611,2026-01-19 10h24.52.137843 +0530,
,,,34,34,0,6,frames\Vid6_BB_T.png,frames\Vid6_L.png,['r'],1,[5.384640199990827],[None],5,1.2320477999892319,,,,,0,34,34,5,1887.9989122999978,,23,Male,Right handed,Normal,,,,,,,,,,,,,,,,,,,,,,,,,,,,,,,,,,,,,,,,1887.9794693000003,1887.9989122999978,1887.9989122999978,1887.9989122999978,1887.9989122999978,1887.9989122999978,1887.9989122999978,1893.3998011999938,['r'],1,[5.384640199990827],[None],1893.4005356999987,1893.4154147999943,1893.4154147999943,1893.4154147999943,1894.649571499991,5,1.2320477999892319,5,1.2320477999892319,,,,,,sub33_AB,001,2026-01-19_10h23.37.172,recognitionstage,,2025.1.1,60.09846532148611,2026-01-19 10h24.52.137843 +0530,
,,,35,35,0,32,frames\Vid32_EM_T.png,frames\Vid32_L.png,['l'],1,[3.379128300002776],[None],5,1.3631599000073038,,,,,0,35,35,31,1894.6844077999995,,23,Male,Right handed,Normal,,,,,,,,,,,,,,,,,,,,,,,,,,,,,,,,,,,,,,,,1894.6640710999927,1894.6844077999995,1894.6844077999995,1894.6844077999995,1894.6844077999995,1894.6844077999995,1894.6844077999995,1898.0680375999946,['l'],1,[3.379128300002776],[None],1898.0692063000024,1898.081193799997,1898.081193799997,1898.081193799997,1899.4485257999913,5,1.3631599000073038,5,1.3631599000073038,,,,,,sub33_AB,001,2026-01-19_10h23.37.172,recognitionstage,,2025.1.1,60.09846532148611,2026-01-19 10h24.52.137843 +0530,
,,,36,36,0,35,frames\Vid35_EM_T.png,frames\Vid35_L.png,['l'],1,[6.309571700010565],[None],5,0.9151756000064779,,,,,0,36,36,34,1899.481799000001,,23,Male,Right handed,Normal,,,,,,,,,,,,,,,,,,,,,,,,,,,,,,,,,,,,,,,,1899.4591554999934,1899.481799000001,1899.481799000001,1899.481799000001,1899.481799000001,1899.481799000001,1899.481799000001,1905.7997946999967,['l'],1,[6.309571700010565],[None],1905.8005725999974,1905.814425699995,1905.814425699995,1905.814425699995,1906.7327588999906,5,0.9151756000064779,5,0.9151756000064779,,,,,,sub33_AB,001,2026-01-19_10h23.37.172,recognitionstage,,2025.1.1,60.09846532148611,2026-01-19 10h24.52.137843 +0530,
,,,37,37,0,22,frames\Vid22_EM_T.png,frames\Vid22_L.png,['r'],1,[7.898837400003686],[None],5,1.1986980000074254,,,,,0,37,37,21,1906.764545099999,,23,Male,Right handed,Normal,,,,,,,,,,,,,,,,,,,,,,,,,,,,,,,,,,,,,,,,1906.7454542999913,1906.764545099999,1906.764545099999,1906.764545099999,1906.764545099999,1906.764545099999,1906.764545099999,1914.666442799993,['r'],1,[7.898837400003686],[None],1914.6673466999928,1914.6815002999938,1914.6815002999938,1914.6815002999938,1915.8827166999981,5,1.1986980000074254,5,1.1986980000074254,,,,,,sub33_AB,001,2026-01-19_10h23.37.172,recognitionstage,,2025.1.1,60.09846532148611,2026-01-19 10h24.52.137843 +0530,
,,,38,38,0,17,frames\Vid17_BB_T.png,frames\Vid17_L.png,['r'],1,[3.188211200002115],[None],5,0.6647068000020226,,,,,0,38,38,16,1915.9152137999918,,23,Male,Right handed,Normal,,,,,,,,,,,,,,,,,,,,,,,,,,,,,,,,,,,,,,,,1915.908344800002,1915.9152137999918,1915.9152137999918,1915.9152137999918,1915.9152137999918,1915.9152137999918,1915.9152137999918,1919.1164295999915,['r'],1,[3.188211200002115],[None],1919.1174766999902,1919.1314020999998,1919.1314020999998,1919.1314020999998,1919.7993963999907,5,0.6647068000020226,5,0.6647068000020226,,,,,,sub33_AB,001,2026-01-19_10h23.37.172,recognitionstage,,2025.1.1,60.09846532148611,2026-01-19 10h24.52.137843 +0530,
,,,39,39,0,30,frames\Vid30_EM_T.png,frames\Vid30_L.png,['r'],1,[5.294496899994556],[None],5,1.082765900006052,,,,,0,39,39,29,1919.8329777000035,,23,Male,Right handed,Normal,,,,,,,,,,,,,,,,,,,,,,,,,,,,,,,,,,,,,,,,1919.8092302000005,1919.8329777000035,1919.8329777000035,1919.8329777000035,1919.8329777000035,1919.8329777000035,1919.8329777000035,1925.133040300003,['r'],1,[5.294496899994556],[None],1925.13410879999,1925.1480810999929,1925.1480810999929,1925.1480810999929,1926.2319871999935,5,1.082765900006052,5,1.082765900006052,,,,,,sub33_AB,001,2026-01-19_10h23.37.172,recognitionstage,,2025.1.1,60.09846532148611,2026-01-19 10h24.52.137843 +0530,
,,,,,,,,,,,,,,,,,,,,,,,,,23,Male,Right handed,Normal,,,,,,,,,,,,,,,,,,,,,,,,,,,,,,,,,,,,,,,,,,,,,,,,,,,,,,,,,,,,,1926.232078599991,1926.2485543999937,1926.2485543999937,1946.2323066999961,None,sub33_AB,001,2026-01-19_10h23.37.172,recognitionstage,,2025.1.1,60.09846532148611,2026-01-19 10h24.52.137843 +0530,
