path,duration,is_repeat,thisN,thisTrialN,thisRepN,movie_id,target_img,lure_img,resp.keys,resp.corr,resp.rt,resp.duration,conf_radio.response,conf_radio.rt,movie.thisRepN,movie.thisTrialN,movie.thisN,movie.thisIndex,recogloop.thisRepN,recogloop.thisTrialN,recogloop.thisN,recogloop.thisIndex,thisRow.t,notes,age,gender,handedness,vision,caffeine_2h,alcohol_smoke_12h,demographics.started,demographics.stopped,Instructions.started,text1.started,key_resp.started,Instructions.stopped,key_resp.keys,key_resp.rt,key_resp.duration,instruction_2.started,text2.started,key_resp_2.started,instruction_2.stopped,key_resp_2.keys,key_resp_2.rt,key_resp_2.duration,Videos.started,movie_2.started,vigilance_resp.started,movie_2.stopped,Videos.stopped,movie.vigilance_resp.keys,vigilance_pressed,vigilance_correct,ISI.started,text.started,ISI.stopped,text.stopped,movie.vigilance_resp.rt,movie.vigilance_resp.duration,recognition.started,text_4.started,key_resp_3.started,recognition.stopped,key_resp_3.keys,key_resp_3.rt,key_resp_3.duration,recognition_task.started,leftimage.started,rightimage.started,resp.started,frames_question.started,right_label.started,left_label.started,recognition_task.stopped,recogloop.resp.keys,recogloop.resp.corr,recogloop.resp.rt,recogloop.resp.duration,confidence.started,conf_text.started,conf_radio.started,conf_label.started,confidence.stopped,recogloop.conf_radio.response,recogloop.conf_radio.rt,confidence,confidence_rt,thank_you.started,text_6.started,key_resp_4.started,thank_you.stopped,key_resp_4.keys,key_resp_4.rt,key_resp_4.duration,participant,session,date,expName,expVersion,psychopyVersion,frameRate,expStart,...105
,,,,,,,,,,,,,,,,,,,,,,,,,20,Male,Right handed,Normal,Caffeine consumed in last 2 hours?,Alcohol or smoking in last 12 hours?,0.013335299998288974,0.01582109999435488,,,,,,,,,,,,,,,,,,,,,,,,,,,,,,,,,,,,,,,,,,,,,,,,,,,,,,,,,,,,,,,,sub31_AB,001,2026-01-18_22h42.51.992,recognitionstage,,2025.1.1,60.04826679650116,2026-01-18 22h44.12.603084 +0530,
,,,,,,,,,,,,,,,,,,,,,,,,,20,Male,Right handed,Normal,,,,,0.015843499997572508,0.032163500000024214,0.032163500000024214,8.749798199998622,space,8.70719619999727,None,,,,,,,,,,,,,,,,,,,,,,,,,,,,,,,,,,,,,,,,,,,,,,,,,,,,,,,,,sub31_AB,001,2026-01-18_22h42.51.992,recognitionstage,,2025.1.1,60.04826679650116,2026-01-18 22h44.12.603084 +0530,
,,,,,,,,,,,,,,,,,,,,,,,,,20,Male,Right handed,Normal,,,,,,,,,,,,8.749850399995921,8.766384299997299,8.766384299997299,17.60281060000125,space,8.821070900004997,None,,,,,,,,,,,,,,,,,,,,,,,,,,,,,,,,,,,,,,,,,,,,,,,,,,sub31_AB,001,2026-01-18_22h42.51.992,recognitionstage,,2025.1.1,60.04826679650116,2026-01-18 22h44.12.603084 +0530,
abrupt_videos\abrupt_15.mp4,29,0,44,44,0,,,,,,,,,,0,44,44,16,,,,,1531.5814358999996,,20,Male,Right handed,Normal,,,,,,,,,,,,,,,,,,,1531.5356577999992,1531.5814358999996,1531.5814358999996,1561.0643423000001,1560.9085922000013,None,0,1,1561.0442163999978,1561.0643423000001,1563.5509373999957,1484.0313831999956,3.1496083000020008,None,1563.5510298000008,1563.5664244,1563.5664244,1586.784560699998,space,23.21307920000254,None,,,,,,,,,,,,,,,,,,,,,,,,,,,,,sub31_AB,001,2026-01-18_22h42.51.992,recognitionstage,,2025.1.1,60.04826679650116,2026-01-18 22h44.12.603084 +0530,
,,,0,0,0,11,frames\Vid11_EM_T.png,frames\Vid11_L.png,['l'],1,[5.139931899997464],[None],5,4.481316799996421,,,,,0,0,0,10,1586.8474573999993,,20,Male,Right handed,Normal,,,,,,,,,,,,,,,,,,,,,,,,,,,,,,,,,,,,,,,,1586.8390784000003,1586.8474573999993,1586.8474573999993,1586.8474573999993,1586.8474573999993,1586.8474573999993,1586.8474573999993,1592.000606900001,['l'],1,[5.139931899997464],[None],1592.0016332999949,1592.0297131999978,1592.0297131999978,1592.0297131999978,1596.4988583000013,5,4.481316799996421,5,4.481316799996421,,,,,,,,sub31_AB,001,2026-01-18_22h42.51.992,recognitionstage,,2025.1.1,60.04826679650116,2026-01-18 22h44.12.603084 +0530,
,,,1,1,0,31,frames\Vid31_EM_T.png,frames\Vid31_L.png,['r'],1,[3.5608186000026762],[None],5,1.6310585999963223,,,,,0,1,1,30,1596.5307023999994,,20,Male,Right handed,Normal,,,,,,,,,,,,,,,,,,,,,,,,,,,,,,,,,,,,,,,,1596.5227152000007,1596.5307023999994,1596.5307023999994,1596.5307023999994,1596.5307023999994,1596.5307023999994,1596.5307023999994,1600.1005331999986,['r'],1,[3.5608186000026762],[None],1600.1015324999971,1600.1153061000005,1600.1153061000005,1600.1153061000005,1601.7490821999963,5,1.6310585999963223,5,1.6310585999963223,,,,,,,,sub31_AB,001,2026-01-18_22h42.51.992,recognitionstage,,2025.1.1,60.04826679650116,2026-01-18 22h44.12.603084 +0530,
,,,2,2,0,4,frames\Vid4_EM_T.png,frames\Vid4_L.png,['r'],1,[10.011948699997447],[None],4,2.462797899999714,,,,,0,2,2,3,1601.815701200001,,20,Male,Right handed,Normal,,,,,,,,,,,,,,,,,,,,,,,,,,,,,,,,,,,,,,,,1601.7931065999946,1601.815701200001,1601.815701200001,1601.815701200001,1601.815701200001,1601.815701200001,1601.815701200001,1611.8352083999998,['r'],1,[10.011948699997447],[None],1611.8364301999973,1611.863636199996,1611.863636199996,1611.863636199996,1614.3164647999947,4,2.462797899999714,4,2.462797899999714,,,,,,,,sub31_AB,001,2026-01-18_22h42.51.992,recognitionstage,,2025.1.1,60.04826679650116,2026-01-18 22h44.12.603084 +0530,
,,,3,3,0,9,frames\Vid9_EM_T.png,frames\Vid9_L.png,['r'],1,[3.738877000003413],[None],4,2.1323817999946186,,,,,0,3,3,8,1614.3685407999947,,20,Male,Right handed,Normal,,,,,,,,,,,,,,,,,,,,,,,,,,,,,,,,,,,,,,,,1614.3533119999993,1614.3685407999947,1614.3685407999947,1614.3685407999947,1614.3685407999947,1614.3685407999947,1614.3685407999947,1618.1167593999999,['r'],1,[3.738877000003413],[None],1618.1175797999967,1618.1315364999973,1618.1315364999973,1618.1315364999973,1620.2660401999965,4,2.1323817999946186,4,2.1323817999946186,,,,,,,,sub31_AB,001,2026-01-18_22h42.51.992,recognitionstage,,2025.1.1,60.04826679650116,2026-01-18 22h44.12.603084 +0530,
,,,4,4,0,22,frames\Vid22_EM_T.png,frames\Vid22_L.png,['l'],1,[6.1347475000002305],[None],5,1.7296678999991855,,,,,0,4,4,21,1620.3007807999966,,20,Male,Right handed,Normal,,,,,,,,,,,,,,,,,,,,,,,,,,,,,,,,,,,,,,,,1620.2792504999961,1620.3007807999966,1620.3007807999966,1620.3007807999966,1620.3007807999966,1620.3007807999966,1620.3007807999966,1626.4521179000003,['l'],1,[6.1347475000002305],[None],1626.453517599999,1626.4799532999969,1626.4799532999969,1626.4799532999969,1628.1994013000003,5,1.7296678999991855,5,1.7296678999991855,,,,,,,,sub31_AB,001,2026-01-18_22h42.51.992,recognitionstage,,2025.1.1,60.04826679650116,2026-01-18 22h44.12.603084 +0530,
,,,5,5,0,1,frames\Vid1_EM_T.png,frames\Vid1_L.png,['l'],1,[15.089313600001333],[None],5,2.163853999998537,,,,,0,5,5,0,1628.2661078999954,,20,Male,Right handed,Normal,,,,,,,,,,,,,,,,,,,,,,,,,,,,,,,,,,,,,,,,1628.2437779999964,1628.2661078999954,1628.2661078999954,1628.2661078999954,1628.2661078999954,1628.2661078999954,1628.2661078999954,1643.3669678000006,['l'],1,[15.089313600001333],[None],1643.3690889999998,1643.382007399996,1643.382007399996,1643.382007399996,1645.549105799997,5,2.163853999998537,5,2.163853999998537,,,,,,,,sub31_AB,001,2026-01-18_22h42.51.992,recognitionstage,,2025.1.1,60.04826679650116,2026-01-18 22h44.12.603084 +0530,
,,,6,6,0,26,frames\Vid26_EM_T.png,frames\Vid26_L.png,['l'],1,[13.018890100000135],[None],3,2.4152516999965883,,,,,0,6,6,25,1645.5845487999977,,20,Male,Right handed,Normal,,,,,,,,,,,,,,,,,,,,,,,,,,,,,,,,,,,,,,,,1645.5636742999995,1645.5845487999977,1645.5845487999977,1645.5845487999977,1645.5845487999977,1645.5845487999977,1645.5845487999977,1658.6171764999963,['l'],1,[13.018890100000135],[None],1658.6181845999963,1658.6320291999946,1658.6320291999946,1658.6320291999946,1661.0486894999995,3,2.4152516999965883,3,2.4152516999965883,,,,,,,,sub31_AB,001,2026-01-18_22h42.51.992,recognitionstage,,2025.1.1,60.04826679650116,2026-01-18 22h44.12.603084 +0530,
,,,7,7,0,37,frames\Vid37_BB_T.png,frames\Vid37_L.png,['r'],1,[3.6095717000061995],[None],5,2.314704000003985,,,,,0,7,7,36,1661.0818798999971,,20,Male,Right handed,Normal,,,,,,,,,,,,,,,,,,,,,,,,,,,,,,,,,,,,,,,,1661.0597584999996,1661.0818798999971,1661.0818798999971,1661.0818798999971,1661.0818798999971,1661.0818798999971,1661.0818798999971,1664.7005921999953,['r'],1,[3.6095717000061995],[None],1664.7014453999946,1664.7150074999954,1664.7150074999954,1664.7150074999954,1667.0325557999968,5,2.314704000003985,5,2.314704000003985,,,,,,,,sub31_AB,001,2026-01-18_22h42.51.992,recognitionstage,,2025.1.1,60.04826679650116,2026-01-18 22h44.12.603084 +0530,
,,,8,8,0,6,frames\Vid6_BB_T.png,frames\Vid6_L.png,['l'],1,[3.0967930999977398],[None],5,1.4979153999956907,,,,,0,8,8,5,1667.0827844000014,,20,Male,Right handed,Normal,,,,,,,,,,,,,,,,,,,,,,,,,,,,,,,,,,,,,,,,1667.0749197999976,1667.0827844000014,1667.0827844000014,1667.0827844000014,1667.0827844000014,1667.0827844000014,1667.0827844000014,1670.1838725999987,['l'],1,[3.0967930999977398],[None],1670.184806899997,1670.1988705999975,1670.1988705999975,1670.1988705999975,1671.6992262999993,5,1.4979153999956907,5,1.4979153999956907,,,,,,,,sub31_AB,001,2026-01-18_22h42.51.992,recognitionstage,,2025.1.1,60.04826679650116,2026-01-18 22h44.12.603084 +0530,
,,,9,9,0,38,frames\Vid38_EM_T.png,frames\Vid38_L.png,['l'],1,[5.931443299996317],[None],2,3.115010400004394,,,,,0,9,9,37,1671.719950599996,,20,Male,Right handed,Normal,,,,,,,,,,,,,,,,,,,,,,,,,,,,,,,,,,,,,,,,1671.7092661999995,1671.719950599996,1671.719950599996,1671.719950599996,1671.719950599996,1671.719950599996,1671.719950599996,1677.6676743999997,['l'],1,[5.931443299996317],[None],1677.6686689999988,1677.681809900001,1677.681809900001,1677.681809900001,1680.7991551999949,2,3.115010400004394,2,3.115010400004394,,,,,,,,sub31_AB,001,2026-01-18_22h42.51.992,recognitionstage,,2025.1.1,60.04826679650116,2026-01-18 22h44.12.603084 +0530,
,,,10,10,0,29,frames\Vid29_BB_T.png,frames\Vid29_L.png,['l'],1,[3.8748829000032856],[None],3,2.3808839000048465,,,,,0,10,10,28,1680.8166779999956,,20,Male,Right handed,Normal,,,,,,,,,,,,,,,,,,,,,,,,,,,,,,,,,,,,,,,,1680.8094971999963,1680.8166779999956,1680.8166779999956,1680.8166779999956,1680.8166779999956,1680.8166779999956,1680.8166779999956,1684.700991400001,['l'],1,[3.8748829000032856],[None],1684.7020314999972,1684.7151270999966,1684.7151270999966,1684.7151270999966,1687.0996237,3,2.3808839000048465,3,2.3808839000048465,,,,,,,,sub31_AB,001,2026-01-18_22h42.51.992,recognitionstage,,2025.1.1,60.04826679650116,2026-01-18 22h44.12.603084 +0530,
,,,11,11,0,19,frames\Vid19_BB_T.png,frames\Vid19_L.png,['r'],0,[4.48018189999857],[None],3,1.3634391999949003,,,,,0,11,11,18,1687.131420400001,,20,Male,Right handed,Normal,,,,,,,,,,,,,,,,,,,,,,,,,,,,,,,,,,,,,,,,1687.1108636999998,1687.131420400001,1687.131420400001,1687.131420400001,1687.131420400001,1687.131420400001,1687.131420400001,1691.6184054999976,['r'],0,[4.48018189999857],[None],1691.6197688999964,1691.6318685000006,1691.6318685000006,1691.6318685000006,1692.9989344999995,3,1.3634391999949003,3,1.3634391999949003,,,,,,,,sub31_AB,001,2026-01-18_22h42.51.992,recognitionstage,,2025.1.1,60.04826679650116,2026-01-18 22h44.12.603084 +0530,
,,,12,12,0,33,frames\Vid33_BB_T.png,frames\Vid33_L.png,['l'],1,[3.7556492000003345],[None],4,1.9655343999984325,,,,,0,12,12,32,1693.0317921999958,,20,Male,Right handed,Normal,,,,,,,,,,,,,,,,,,,,,,,,,,,,,,,,,,,,,,,,1693.0102812999976,1693.0317921999958,1693.0317921999958,1693.0317921999958,1693.0317921999958,1693.0317921999958,1693.0317921999958,1696.8002521999952,['l'],1,[3.7556492000003345],[None],1696.8013558999955,1696.815593899999,1696.815593899999,1696.815593899999,1698.7830069999982,4,1.9655343999984325,4,1.9655343999984325,,,,,,,,sub31_AB,001,2026-01-18_22h42.51.992,recognitionstage,,2025.1.1,60.04826679650116,2026-01-18 22h44.12.603084 +0530,
,,,13,13,0,5,frames\Vid5_EM_T.png,frames\Vid5_L.png,['r'],1,[5.491333400001167],[None],4,2.130585599996266,,,,,0,13,13,4,1698.8320924,,20,Male,Right handed,Normal,,,,,,,,,,,,,,,,,,,,,,,,,,,,,,,,,,,,,,,,1698.8148164000013,1698.8320924,1698.8320924,1698.8320924,1698.8320924,1698.8320924,1698.8320924,1704.3340380999944,['r'],1,[5.491333400001167],[None],1704.3351397000006,1704.3485894999976,1704.3485894999976,1704.3485894999976,1706.4832963000008,4,2.130585599996266,4,2.130585599996266,,,,,,,,sub31_AB,001,2026-01-18_22h42.51.992,recognitionstage,,2025.1.1,60.04826679650116,2026-01-18 22h44.12.603084 +0530,
,,,14,14,0,40,frames\Vid40_EM_T.png,frames\Vid40_L.png,['r'],1,[2.9894008000046597],[None],5,1.3320768000048702,,,,,0,14,14,39,1706.5021551999962,,20,Male,Right handed,Normal,,,,,,,,,,,,,,,,,,,,,,,,,,,,,,,,,,,,,,,,1706.492113100001,1706.5021551999962,1706.5021551999962,1706.5021551999962,1706.5021551999962,1706.5021551999962,1706.5021551999962,1709.500048599999,['r'],1,[2.9894008000046597],[None],1709.500846899995,1709.5153337999946,1709.5153337999946,1709.5153337999946,1710.8491211,5,1.3320768000048702,5,1.3320768000048702,,,,,,,,sub31_AB,001,2026-01-18_22h42.51.992,recognitionstage,,2025.1.1,60.04826679650116,2026-01-18 22h44.12.603084 +0530,
,,,15,15,0,34,frames\Vid34_BB_T.png,frames\Vid34_L.png,['r'],0,[5.816857899997558],[None],5,1.1471921999982442,,,,,0,15,15,33,1710.8665669999973,,20,Male,Right handed,Normal,,,,,,,,,,,,,,,,,,,,,,,,,,,,,,,,,,,,,,,,1710.8581833999997,1710.8665669999973,1710.8665669999973,1710.8665669999973,1710.8665669999973,1710.8665669999973,1710.8665669999973,1716.6847869999983,['r'],0,[5.816857899997558],[None],1716.685777300001,1716.6981391999943,1716.6981391999943,1716.6981391999943,1717.849213399997,5,1.1471921999982442,5,1.1471921999982442,,,,,,,,sub31_AB,001,2026-01-18_22h42.51.992,recognitionstage,,2025.1.1,60.04826679650116,2026-01-18 22h44.12.603084 +0530,
,,,16,16,0,36,frames\Vid36_BB_T.png,frames\Vid36_L.png,['l'],1,[4.097847800003365],[None],5,1.3145736000005854,,,,,0,16,16,35,1717.8816864999972,,20,Male,Right handed,Normal,,,,,,,,,,,,,,,,,,,,,,,,,,,,,,,,,,,,,,,,1717.8630052999943,1717.8816864999972,1717.8816864999972,1717.8816864999972,1717.8816864999972,1717.8816864999972,1717.8816864999972,1721.984036599999,['l'],1,[4.097847800003365],[None],1721.9851229999986,1721.9987035999948,1721.9987035999948,1721.9987035999948,1723.316081500001,5,1.3145736000005854,5,1.3145736000005854,,,,,,,,sub31_AB,001,2026-01-18_22h42.51.992,recognitionstage,,2025.1.1,60.04826679650116,2026-01-18 22h44.12.603084 +0530,
,,,17,17,0,20,frames\Vid20_EM_T.png,frames\Vid20_L.png,['r'],0,[6.805494799998996],[None],3,3.729562000000442,,,,,0,17,17,19,1723.3340373999963,,20,Male,Right handed,Normal,,,,,,,,,,,,,,,,,,,,,,,,,,,,,,,,,,,,,,,,1723.3242486999952,1723.3340373999963,1723.3340373999963,1723.3340373999963,1723.3340373999963,1723.3340373999963,1723.3340373999963,1730.151498799998,['r'],0,[6.805494799998996],[None],1730.1530448999983,1730.1800281999967,1730.1800281999967,1730.1800281999967,1733.899867799999,3,3.729562000000442,3,3.729562000000442,,,,,,,,sub31_AB,001,2026-01-18_22h42.51.992,recognitionstage,,2025.1.1,60.04826679650116,2026-01-18 22h44.12.603084 +0530,
,,,18,18,0,3,frames\Vid3_BB_T.png,frames\Vid3_L.png,['r'],1,[4.807049100003496],[None],5,1.5312009000044782,,,,,0,18,18,2,1733.948567200001,,20,Male,Right handed,Normal,,,,,,,,,,,,,,,,,,,,,,,,,,,,,,,,,,,,,,,,1733.9399068999992,1733.948567200001,1733.948567200001,1733.948567200001,1733.948567200001,1733.948567200001,1733.948567200001,1738.7680015000005,['r'],1,[4.807049100003496],[None],1738.7694711000004,1738.7816998999988,1738.7816998999988,1738.7816998999988,1740.315968899995,5,1.5312009000044782,5,1.5312009000044782,,,,,,,,sub31_AB,001,2026-01-18_22h42.51.992,recognitionstage,,2025.1.1,60.04826679650116,2026-01-18 22h44.12.603084 +0530,
,,,19,19,0,25,frames\Vid25_BB_T.png,frames\Vid25_L.png,['l'],1,[4.62086549999367],[None],5,1.030381500000658,,,,,0,19,19,24,1740.3506147000007,,20,Male,Right handed,Normal,,,,,,,,,,,,,,,,,,,,,,,,,,,,,,,,,,,,,,,,1740.3278460000001,1740.3506147000007,1740.3506147000007,1740.3506147000007,1740.3506147000007,1740.3506147000007,1740.3506147000007,1744.9843624999994,['l'],1,[4.62086549999367],[None],1744.9855054,1744.9986439999993,1744.9986439999993,1744.9986439999993,1746.0326706999986,5,1.030381500000658,5,1.030381500000658,,,,,,,,sub31_AB,001,2026-01-18_22h42.51.992,recognitionstage,,2025.1.1,60.04826679650116,2026-01-18 22h44.12.603084 +0530,
,,,20,20,0,2,frames\Vid2_BB_T.png,frames\Vid2_L.png,['r'],1,[4.857149399998889],[None],5,1.282659500000591,,,,,0,20,20,1,1746.082314899999,,20,Male,Right handed,Normal,,,,,,,,,,,,,,,,,,,,,,,,,,,,,,,,,,,,,,,,1746.0706726999997,1746.082314899999,1746.082314899999,1746.082314899999,1746.082314899999,1746.082314899999,1746.082314899999,1750.9499929999947,['r'],1,[4.857149399998889],[None],1750.950929300001,1750.965816099997,1750.965816099997,1750.965816099997,1752.2493327999982,5,1.282659500000591,5,1.282659500000591,,,,,,,,sub31_AB,001,2026-01-18_22h42.51.992,recognitionstage,,2025.1.1,60.04826679650116,2026-01-18 22h44.12.603084 +0530,
,,,21,21,0,32,frames\Vid32_EM_T.png,frames\Vid32_L.png,['r'],1,[4.071016800000507],[None],5,0.831839200000104,,,,,0,21,21,31,1752.2846319999953,,20,Male,Right handed,Normal,,,,,,,,,,,,,,,,,,,,,,,,,,,,,,,,,,,,,,,,1752.2615603000013,1752.2846319999953,1752.2846319999953,1752.2846319999953,1752.2846319999953,1752.2846319999953,1752.2846319999953,1756.367962299999,['r'],1,[4.071016800000507],[None],1756.3689993999942,1756.3816224999973,1756.3816224999973,1756.3816224999973,1757.215975799998,5,0.831839200000104,5,0.831839200000104,,,,,,,,sub31_AB,001,2026-01-18_22h42.51.992,recognitionstage,,2025.1.1,60.04826679650116,2026-01-18 22h44.12.603084 +0530,
,,,22,22,0,15,frames\Vid15_BB_T.png,frames\Vid15_L.png,['l'],1,[4.584140200000547],[None],5,0.882431899997755,,,,,0,22,22,14,1757.2833191999962,,20,Male,Right handed,Normal,,,,,,,,,,,,,,,,,,,,,,,,,,,,,,,,,,,,,,,,1757.2626531999995,1757.2833191999962,1757.2833191999962,1757.2833191999962,1757.2833191999962,1757.2833191999962,1757.2833191999962,1761.8835806999996,['l'],1,[4.584140200000547],[None],1761.884565399996,1761.8985294999948,1761.8985294999948,1761.8985294999948,1762.7827612999972,5,0.882431899997755,5,0.882431899997755,,,,,,,,sub31_AB,001,2026-01-18_22h42.51.992,recognitionstage,,2025.1.1,60.04826679650116,2026-01-18 22h44.12.603084 +0530,
,,,23,23,0,12,frames\Vid12_EM_T.png,frames\Vid12_L.png,['r'],1,[2.5359489000038593],[None],5,0.7646549999990384,,,,,0,23,23,11,1762.8514823000005,,20,Male,Right handed,Normal,,,,,,,,,,,,,,,,,,,,,,,,,,,,,,,,,,,,,,,,1762.8272211000003,1762.8514823000005,1762.8514823000005,1762.8514823000005,1762.8514823000005,1762.8514823000005,1762.8514823000005,1765.401013499999,['r'],1,[2.5359489000038593],[None],1765.4020908999955,1765.4150427999994,1765.4150427999994,1765.4150427999994,1766.1828616999992,5,0.7646549999990384,5,0.7646549999990384,,,,,,,,sub31_AB,001,2026-01-18_22h42.51.992,recognitionstage,,2025.1.1,60.04826679650116,2026-01-18 22h44.12.603084 +0530,
,,,24,24,0,23,frames\Vid23_EM_T.png,frames\Vid23_L.png,['r'],1,[2.9135871999969822],[None],5,0.9808188999959384,,,,,0,24,24,22,1766.217974399995,,20,Male,Right handed,Normal,,,,,,,,,,,,,,,,,,,,,,,,,,,,,,,,,,,,,,,,1766.200843599996,1766.217974399995,1766.217974399995,1766.217974399995,1766.217974399995,1766.217974399995,1766.217974399995,1769.134753899998,['r'],1,[2.9135871999969822],[None],1769.1356278999956,1769.1483774999942,1769.1483774999942,1769.1483774999942,1770.132759,5,0.9808188999959384,5,0.9808188999959384,,,,,,,,sub31_AB,001,2026-01-18_22h42.51.992,recognitionstage,,2025.1.1,60.04826679650116,2026-01-18 22h44.12.603084 +0530,
,,,25,25,0,28,frames\Vid28_EM_T.png,frames\Vid28_L.png,['r'],1,[5.686356000005617],[None],5,0.5811727000036626,,,,,0,25,25,27,1770.165279599998,,20,Male,Right handed,Normal,,,,,,,,,,,,,,,,,,,,,,,,,,,,,,,,,,,,,,,,1770.1438259999995,1770.165279599998,1770.165279599998,1770.165279599998,1770.165279599998,1770.165279599998,1770.165279599998,1775.8675771999988,['r'],1,[5.686356000005617],[None],1775.8687271999952,1775.8822450000007,1775.8822450000007,1775.8822450000007,1776.4662198000005,5,0.5811727000036626,5,0.5811727000036626,,,,,,,,sub31_AB,001,2026-01-18_22h42.51.992,recognitionstage,,2025.1.1,60.04826679650116,2026-01-18 22h44.12.603084 +0530,
,,,26,26,0,16,frames\Vid16_EM_T.png,frames\Vid16_L.png,['l'],0,[3.0319763000006787],[None],1,2.597431100002723,,,,,0,26,26,15,1776.5157276999962,,20,Male,Right handed,Normal,,,,,,,,,,,,,,,,,,,,,,,,,,,,,,,,,,,,,,,,1776.5074412999966,1776.5157276999962,1776.5157276999962,1776.5157276999962,1776.5157276999962,1776.5157276999962,1776.5157276999962,1779.5512151000003,['l'],0,[3.0319763000006787],[None],1779.552253599999,1779.5653487999953,1779.5653487999953,1779.5653487999953,1782.1661571000004,1,2.597431100002723,1,2.597431100002723,,,,,,,,sub31_AB,001,2026-01-18_22h42.51.992,recognitionstage,,2025.1.1,60.04826679650116,2026-01-18 22h44.12.603084 +0530,
,,,27,27,0,35,frames\Vid35_EM_T.png,frames\Vid35_L.png,['r'],1,[3.488919600000372],[None],4,1.0314110000035726,,,,,0,27,27,34,1782.1865710999991,,20,Male,Right handed,Normal,,,,,,,,,,,,,,,,,,,,,,,,,,,,,,,,,,,,,,,,1782.174572099997,1782.1865710999991,1782.1865710999991,1782.1865710999991,1782.1865710999991,1782.1865710999991,1782.1865710999991,1785.6837023999979,['r'],1,[3.488919600000372],[None],1785.6846946000005,1785.6985896999977,1785.6985896999977,1785.6985896999977,1786.733356699995,4,1.0314110000035726,4,1.0314110000035726,,,,,,,,sub31_AB,001,2026-01-18_22h42.51.992,recognitionstage,,2025.1.1,60.04826679650116,2026-01-18 22h44.12.603084 +0530,
,,,28,28,0,39,frames\Vid39_BB_T.png,frames\Vid39_L.png,['r'],0,[3.869394299996202],[None],5,1.2626772000003257,,,,,0,28,28,38,1786.750072099996,,20,Male,Right handed,Normal,,,,,,,,,,,,,,,,,,,,,,,,,,,,,,,,,,,,,,,,1786.7418499999985,1786.750072099996,1786.750072099996,1786.750072099996,1786.750072099996,1786.750072099996,1786.750072099996,1790.6355165999994,['r'],0,[3.869394299996202],[None],1790.6369773999977,1790.6632526999965,1790.6632526999965,1790.6632526999965,1791.9163439999975,5,1.2626772000003257,5,1.2626772000003257,,,,,,,,sub31_AB,001,2026-01-18_22h42.51.992,recognitionstage,,2025.1.1,60.04826679650116,2026-01-18 22h44.12.603084 +0530,
,,,29,29,0,24,frames\Vid24_BB_T.png,frames\Vid24_L.png,['r'],1,[3.287233799994283],[None],4,0.9495805999977165,,,,,0,29,29,23,1791.948122599999,,20,Male,Right handed,Normal,,,,,,,,,,,,,,,,,,,,,,,,,,,,,,,,,,,,,,,,1791.9307464999947,1791.948122599999,1791.948122599999,1791.948122599999,1791.948122599999,1791.948122599999,1791.948122599999,1795.2500275999992,['r'],1,[3.287233799994283],[None],1795.250785600001,1795.2656019999995,1795.2656019999995,1795.2656019999995,1796.2160697,4,0.9495805999977165,4,0.9495805999977165,,,,,,,,sub31_AB,001,2026-01-18_22h42.51.992,recognitionstage,,2025.1.1,60.04826679650116,2026-01-18 22h44.12.603084 +0530,
,,,30,30,0,14,frames\Vid14_BB_T.png,frames\Vid14_L.png,['r'],1,[2.840851200002362],[None],5,0.981052399998589,,,,,0,30,30,13,1796.2825952999992,,20,Male,Right handed,Normal,,,,,,,,,,,,,,,,,,,,,,,,,,,,,,,,,,,,,,,,1796.2607883999954,1796.2825952999992,1796.2825952999992,1796.2825952999992,1796.2825952999992,1796.2825952999992,1796.2825952999992,1799.1349427999958,['r'],1,[2.840851200002362],[None],1799.1362653999968,1799.1633174999952,1799.1633174999952,1799.1633174999952,1800.1328544999997,5,0.981052399998589,5,0.981052399998589,,,,,,,,sub31_AB,001,2026-01-18_22h42.51.992,recognitionstage,,2025.1.1,60.04826679650116,2026-01-18 22h44.12.603084 +0530,
,,,31,31,0,18,frames\Vid18_EM_T.png,frames\Vid18_L.png,['l'],1,[3.532047300002887],[None],4,1.4636581999948248,,,,,0,31,31,17,1800.1676000000007,,20,Male,Right handed,Normal,,,,,,,,,,,,,,,,,,,,,,,,,,,,,,,,,,,,,,,,1800.1466962999984,1800.1676000000007,1800.1676000000007,1800.1676000000007,1800.1676000000007,1800.1676000000007,1800.1676000000007,1803.7012988999995,['l'],1,[3.532047300002887],[None],1803.702695299995,1803.715433199999,1803.715433199999,1803.715433199999,1805.1825583999962,4,1.4636581999948248,4,1.4636581999948248,,,,,,,,sub31_AB,001,2026-01-18_22h42.51.992,recognitionstage,,2025.1.1,60.04826679650116,2026-01-18 22h44.12.603084 +0530,
,,,32,32,0,13,frames\Vid13_BB_T.png,frames\Vid13_L.png,['l'],1,[3.6910529999950086],[None],1,0.9986953999978141,,,,,0,32,32,12,1805.2323694000006,,20,Male,Right handed,Normal,,,,,,,,,,,,,,,,,,,,,,,,,,,,,,,,,,,,,,,,1805.216424499995,1805.2323694000006,1805.2323694000006,1805.2323694000006,1805.2323694000006,1805.2323694000006,1805.2323694000006,1808.9335795000006,['l'],1,[3.6910529999950086],[None],1808.9344872000001,1808.9490336999952,1808.9490336999952,1808.9490336999952,1809.9498969999986,1,0.9986953999978141,1,0.9986953999978141,,,,,,,,sub31_AB,001,2026-01-18_22h42.51.992,recognitionstage,,2025.1.1,60.04826679650116,2026-01-18 22h44.12.603084 +0530,
,,,33,33,0,8,frames\Vid8_BB_T.png,frames\Vid8_L.png,['r'],0,[2.441947799998161],[None],5,0.931847599997127,,,,,0,33,33,7,1810.0015485999975,,20,Male,Right handed,Normal,,,,,,,,,,,,,,,,,,,,,,,,,,,,,,,,,,,,,,,,1809.9871695999973,1810.0015485999975,1810.0015485999975,1810.0015485999975,1810.0015485999975,1810.0015485999975,1810.0015485999975,1812.4509064999947,['r'],0,[2.441947799998161],[None],1812.4517925999971,1812.465163599998,1812.465163599998,1812.465163599998,1813.3995473999967,5,0.931847599997127,5,0.931847599997127,,,,,,,,sub31_AB,001,2026-01-18_22h42.51.992,recognitionstage,,2025.1.1,60.04826679650116,2026-01-18 22h44.12.603084 +0530,
,,,34,34,0,10,frames\Vid10_BB_T.png,frames\Vid10_L.png,['r'],0,[8.230884099997638],[None],5,1.2820810999983223,,,,,0,34,34,9,1813.4685944999947,,20,Male,Right handed,Normal,,,,,,,,,,,,,,,,,,,,,,,,,,,,,,,,,,,,,,,,1813.4450616999966,1813.4685944999947,1813.4685944999947,1813.4685944999947,1813.4685944999947,1813.4685944999947,1813.4685944999947,1821.7000438999967,['r'],0,[8.230884099997638],[None],1821.7009388000006,1821.7152707999994,1821.7152707999994,1821.7152707999994,1822.9990435,5,1.2820810999983223,5,1.2820810999983223,,,,,,,,sub31_AB,001,2026-01-18_22h42.51.992,recognitionstage,,2025.1.1,60.04826679650116,2026-01-18 22h44.12.603084 +0530,
,,,35,35,0,21,frames\Vid21_BB_T.png,frames\Vid21_L.png,['l'],1,[3.50453770000604],[None],5,1.0476816999944276,,,,,0,35,35,20,1823.034889399998,,20,Male,Right handed,Normal,,,,,,,,,,,,,,,,,,,,,,,,,,,,,,,,,,,,,,,,1823.0109492999982,1823.034889399998,1823.034889399998,1823.034889399998,1823.034889399998,1823.034889399998,1823.034889399998,1826.550538399999,['l'],1,[3.50453770000604],[None],1826.5514846000005,1826.564954399997,1826.564954399997,1826.564954399997,1827.616414199998,5,1.0476816999944276,5,1.0476816999944276,,,,,,,,sub31_AB,001,2026-01-18_22h42.51.992,recognitionstage,,2025.1.1,60.04826679650116,2026-01-18 22h44.12.603084 +0530,
,,,36,36,0,7,frames\Vid7_EM_T.png,frames\Vid7_L.png,['r'],0,[3.9372283999982756],[None],4,0.8980115999947884,,,,,0,36,36,6,1827.6821866999962,,20,Male,Right handed,Normal,,,,,,,,,,,,,,,,,,,,,,,,,,,,,,,,,,,,,,,,1827.659340099999,1827.6821866999962,1827.6821866999962,1827.6821866999962,1827.6821866999962,1827.6821866999962,1827.6821866999962,1831.6342714999992,['r'],0,[3.9372283999982756],[None],1831.6350371999943,1831.6485092000003,1831.6485092000003,1831.6485092000003,1832.5491710999995,4,0.8980115999947884,4,0.8980115999947884,,,,,,,,sub31_AB,001,2026-01-18_22h42.51.992,recognitionstage,,2025.1.1,60.04826679650116,2026-01-18 22h44.12.603084 +0530,
,,,37,37,0,17,frames\Vid17_BB_T.png,frames\Vid17_L.png,['r'],1,[3.9388609000016004],[None],4,0.7473169000004418,,,,,0,37,37,16,1832.584734899996,,20,Male,Right handed,Normal,,,,,,,,,,,,,,,,,,,,,,,,,,,,,,,,,,,,,,,,1832.5728395999977,1832.584734899996,1832.584734899996,1832.584734899996,1832.584734899996,1832.584734899996,1832.584734899996,1836.534384599996,['r'],1,[3.9388609000016004],[None],1836.5353984999965,1836.5482602999982,1836.5482602999982,1836.5482602999982,1837.2999089000004,4,0.7473169000004418,4,0.7473169000004418,,,,,,,,sub31_AB,001,2026-01-18_22h42.51.992,recognitionstage,,2025.1.1,60.04826679650116,2026-01-18 22h44.12.603084 +0530,
,,,38,38,0,27,frames\Vid27_BB_T.png,frames\Vid27_L.png,['l'],1,[2.1172440000009374],[None],5,1.2306242999984534,,,,,0,38,38,26,1837.3182855999985,,20,Male,Right handed,Normal,,,,,,,,,,,,,,,,,,,,,,,,,,,,,,,,,,,,,,,,1837.3091621999993,1837.3182855999985,1837.3182855999985,1837.3182855999985,1837.3182855999985,1837.3182855999985,1837.3182855999985,1839.4511751999962,['l'],1,[2.1172440000009374],[None],1839.4523492999942,1839.479967399995,1839.479967399995,1839.479967399995,1840.6998812999955,5,1.2306242999984534,5,1.2306242999984534,,,,,,,,sub31_AB,001,2026-01-18_22h42.51.992,recognitionstage,,2025.1.1,60.04826679650116,2026-01-18 22h44.12.603084 +0530,
,,,39,39,0,30,frames\Vid30_EM_T.png,frames\Vid30_L.png,['l'],0,[4.279831899999408],[None],5,1.0478340999979991,,,,,0,39,39,29,1840.7317228999964,,20,Male,Right handed,Normal,,,,,,,,,,,,,,,,,,,,,,,,,,,,,,,,,,,,,,,,1840.7096598999997,1840.7317228999964,1840.7317228999964,1840.7317228999964,1840.7317228999964,1840.7317228999964,1840.7317228999964,1845.0174251999997,['l'],0,[4.279831899999408],[None],1845.018044299999,1845.031923800001,1845.031923800001,1845.031923800001,1846.0830841999996,5,1.0478340999979991,5,1.0478340999979991,,,,,,,,sub31_AB,001,2026-01-18_22h42.51.992,recognitionstage,,2025.1.1,60.04826679650116,2026-01-18 22h44.12.603084 +0530,
,,,,,,,,,,,,,,,,,,,,,,,,,20,Male,Right handed,Normal,,,,,,,,,,,,,,,,,,,,,,,,,,,,,,,,,,,,,,,,,,,,,,,,,,,,,,,,,,,,,1846.0831966999976,1846.0996622999955,1846.0996622999955,1849.3662186000001,space,3.2558472999953665,None,sub31_AB,001,2026-01-18_22h42.51.992,recognitionstage,,2025.1.1,60.04826679650116,2026-01-18 22h44.12.603084 +0530,
