path,duration,is_repeat,thisN,thisTrialN,thisRepN,movie_id,target_img,lure_img,resp.keys,resp.corr,resp.rt,resp.duration,conf_radio.response,conf_radio.rt,movie.thisRepN,movie.thisTrialN,movie.thisN,movie.thisIndex,recogloop.thisRepN,recogloop.thisTrialN,recogloop.thisN,recogloop.thisIndex,thisRow.t,notes,age,gender,handedness,vision,caffeine_2h,alcohol_smoke_12h,demographics.started,demographics.stopped,Instructions.started,text1.started,key_resp.started,Instructions.stopped,key_resp.keys,key_resp.rt,key_resp.duration,instruction_2.started,text2.started,key_resp_2.started,instruction_2.stopped,key_resp_2.keys,key_resp_2.rt,key_resp_2.duration,Videos.started,movie_2.started,vigilance_resp.started,movie_2.stopped,Videos.stopped,movie.vigilance_resp.keys,vigilance_pressed,vigilance_correct,ISI.started,text.started,ISI.stopped,text.stopped,movie.vigilance_resp.rt,movie.vigilance_resp.duration,recognition.started,text_4.started,key_resp_3.started,recognition.stopped,key_resp_3.keys,key_resp_3.rt,key_resp_3.duration,recognition_task.started,leftimage.started,rightimage.started,resp.started,frames_question.started,right_label.started,left_label.started,recognition_task.stopped,recogloop.resp.keys,recogloop.resp.corr,recogloop.resp.rt,recogloop.resp.duration,confidence.started,conf_text.started,conf_radio.started,conf_label.started,confidence.stopped,recogloop.conf_radio.response,recogloop.conf_radio.rt,confidence,confidence_rt,thank_you.started,text_6.started,key_resp_4.started,thank_you.stopped,key_resp_4.keys,participant,session,date,expName,expVersion,psychopyVersion,frameRate,expStart,...103
,,,,,,,,,,,,,,,,,,,,,,,,,19,Male,Right handed,Normal,Caffeine consumed in last 2 hours?,Alcohol or smoking in last 12 hours?,0.018230499990750104,0.020697100000688806,,,,,,,,,,,,,,,,,,,,,,,,,,,,,,,,,,,,,,,,,,,,,,,,,,,,,,,,,,,,,,sub42_NB,001,2026-01-20_11h33.18.538,recognitionstage,,2025.1.1,60.11508431893934,2026-01-20 11h34.13.178280 +0530,
,,,,,,,,,,,,,,,,,,,,,,,,,19,Male,Right handed,Normal,,,,,0.02071879999130033,0.03698239999357611,0.03698239999357611,9.02168740000343,space,8.97133759999997,None,,,,,,,,,,,,,,,,,,,,,,,,,,,,,,,,,,,,,,,,,,,,,,,,,,,,,,,sub42_NB,001,2026-01-20_11h33.18.538,recognitionstage,,2025.1.1,60.11508431893934,2026-01-20 11h34.13.178280 +0530,
,,,,,,,,,,,,,,,,,,,,,,,,,19,Male,Right handed,Normal,,,,,,,,,,,,9.021737700008089,9.038871500000823,9.038871500000823,15.854693500004942,space,6.809499299997697,None,,,,,,,,,,,,,,,,,,,,,,,,,,,,,,,,,,,,,,,,,,,,,,,,sub42_NB,001,2026-01-20_11h33.18.538,recognitionstage,,2025.1.1,60.11508431893934,2026-01-20 11h34.13.178280 +0530,
Trimmed_videos/natural_9.mp4,20,0,44,44,0,,,,,,,,,,0,44,44,10,,,,,1532.9697644000116,,19,Male,Right handed,Normal,,,,,,,,,,,,,,,,,,,1532.9143715999962,1532.9697644000116,1532.9697644000116,1553.369342799997,1553.2183858999924,None,0,1,1553.3545030000096,1553.369342799997,1555.8559143999883,1532.9697644000116,4.462727000005543,None,1555.856013600016,1555.871993800014,1555.871993800014,1599.5054676000145,space,43.632867000007536,None,,,,,,,,,,,,,,,,,,,,,,,,,,,sub42_NB,001,2026-01-20_11h33.18.538,recognitionstage,,2025.1.1,60.11508431893934,2026-01-20 11h34.13.178280 +0530,
,,,0,0,0,3,frames\Vid3_BB_T.png,frames\Vid3_L.png,['r'],1,[10.551671900000656],[None],5,5.414270800014492,,,,,0,0,0,2,1599.5688550999912,,19,Male,Right handed,Normal,,,,,,,,,,,,,,,,,,,,,,,,,,,,,,,,,,,,,,,,1599.55277509999,1599.5688550999912,1599.5688550999912,1599.5688550999912,1599.5688550999912,1599.5688550999912,1599.5688550999912,1610.1224831000145,['r'],1,[10.551671900000656],[None],1610.1235482000047,1610.15157300001,1610.15157300001,1610.15157300001,1615.5542218000046,5,5.414270800014492,5,5.414270800014492,,,,,,sub42_NB,001,2026-01-20_11h33.18.538,recognitionstage,,2025.1.1,60.11508431893934,2026-01-20 11h34.13.178280 +0530,
,,,1,1,0,21,frames\Vid21_BB_T.png,frames\Vid21_L.png,['r'],1,[7.478717799996957],[None],5,1.1298689999966882,,,,,0,1,1,20,1615.6020418000116,,19,Male,Right handed,Normal,,,,,,,,,,,,,,,,,,,,,,,,,,,,,,,,,,,,,,,,1615.5834827999934,1615.6020418000116,1615.6020418000116,1615.6020418000116,1615.6020418000116,1615.6020418000116,1615.6020418000116,1623.090139100008,['r'],1,[7.478717799996957],[None],1623.0913446999912,1623.118258900009,1623.118258900009,1623.118258900009,1624.2382088000013,5,1.1298689999966882,5,1.1298689999966882,,,,,,sub42_NB,001,2026-01-20_11h33.18.538,recognitionstage,,2025.1.1,60.11508431893934,2026-01-20 11h34.13.178280 +0530,
,,,2,2,0,10,frames\Vid10_BB_T.png,frames\Vid10_L.png,['l'],1,[3.5849056000006385],[None],5,1.1991595000145026,,,,,0,2,2,9,1624.2877548999968,,19,Male,Right handed,Normal,,,,,,,,,,,,,,,,,,,,,,,,,,,,,,,,,,,,,,,,1624.2805018000072,1624.2877548999968,1624.2877548999968,1624.2877548999968,1624.2877548999968,1624.2877548999968,1624.2877548999968,1627.8883703000029,['l'],1,[3.5849056000006385],[None],1627.8892808000091,1627.9036951000162,1627.9036951000162,1627.9036951000162,1629.1047696000023,5,1.1991595000145026,5,1.1991595000145026,,,,,,sub42_NB,001,2026-01-20_11h33.18.538,recognitionstage,,2025.1.1,60.11508431893934,2026-01-20 11h34.13.178280 +0530,
,,,3,3,0,2,frames\Vid2_BB_T.png,frames\Vid2_L.png,['l'],1,[4.643225599982543],[None],5,1.2640581999730784,,,,,0,3,3,1,1629.1574935000099,,19,Male,Right handed,Normal,,,,,,,,,,,,,,,,,,,,,,,,,,,,,,,,,,,,,,,,1629.1470303999959,1629.1574935000099,1629.1574935000099,1629.1574935000099,1629.1574935000099,1629.1574935000099,1629.1574935000099,1633.8068683999882,['l'],1,[4.643225599982543],[None],1633.808055600006,1633.8198310000007,1633.8198310000007,1633.8198310000007,1635.0871241000132,5,1.2640581999730784,5,1.2640581999730784,,,,,,sub42_NB,001,2026-01-20_11h33.18.538,recognitionstage,,2025.1.1,60.11508431893934,2026-01-20 11h34.13.178280 +0530,
,,,4,4,0,18,frames\Vid18_EM_T.png,frames\Vid18_L.png,['r'],1,[5.645369199977722],[None],5,1.3304761000035796,,,,,0,4,4,17,1635.1230579999974,,19,Male,Right handed,Normal,,,,,,,,,,,,,,,,,,,,,,,,,,,,,,,,,,,,,,,,1635.0988491000026,1635.1230579999974,1635.1230579999974,1635.1230579999974,1635.1230579999974,1635.1230579999974,1635.1230579999974,1640.7732318000053,['r'],1,[5.645369199977722],[None],1640.7742643000092,1640.7865108000115,1640.7865108000115,1640.7865108000115,1642.1206157999986,5,1.3304761000035796,5,1.3304761000035796,,,,,,sub42_NB,001,2026-01-20_11h33.18.538,recognitionstage,,2025.1.1,60.11508431893934,2026-01-20 11h34.13.178280 +0530,
,,,5,5,0,38,frames\Vid38_EM_T.png,frames\Vid38_L.png,['r'],1,[7.429370099998778],[None],3,1.2978224999969825,,,,,0,5,5,37,1642.1391011000087,,19,Male,Right handed,Normal,,,,,,,,,,,,,,,,,,,,,,,,,,,,,,,,,,,,,,,,1642.1293507000082,1642.1391011000087,1642.1391011000087,1642.1391011000087,1642.1391011000087,1642.1391011000087,1642.1391011000087,1649.5726207999978,['r'],1,[7.429370099998778],[None],1649.5735378999962,1649.586761899991,1649.586761899991,1649.586761899991,1650.8877726999926,3,1.2978224999969825,3,1.2978224999969825,,,,,,sub42_NB,001,2026-01-20_11h33.18.538,recognitionstage,,2025.1.1,60.11508431893934,2026-01-20 11h34.13.178280 +0530,
,,,6,6,0,23,frames\Vid23_EM_T.png,frames\Vid23_L.png,['r'],1,[5.096396300010383],[None],3,1.782034100004239,,,,,0,6,6,22,1650.920211299992,,19,Male,Right handed,Normal,,,,,,,,,,,,,,,,,,,,,,,,,,,,,,,,,,,,,,,,1650.9047820999986,1650.920211299992,1650.920211299992,1650.920211299992,1650.920211299992,1650.920211299992,1650.920211299992,1656.0220038999978,['r'],1,[5.096396300010383],[None],1656.0229892999923,1656.037185299996,1656.037185299996,1656.037185299996,1657.8210169000085,3,1.782034100004239,3,1.782034100004239,,,,,,sub42_NB,001,2026-01-20_11h33.18.538,recognitionstage,,2025.1.1,60.11508431893934,2026-01-20 11h34.13.178280 +0530,
,,,7,7,0,24,frames\Vid24_BB_T.png,frames\Vid24_L.png,['r'],1,[3.2905873999989126],[None],5,1.2160319999966305,,,,,0,7,7,23,1657.8539239999955,,19,Male,Right handed,Normal,,,,,,,,,,,,,,,,,,,,,,,,,,,,,,,,,,,,,,,,1657.8363131000078,1657.8539239999955,1657.8539239999955,1657.8539239999955,1657.8539239999955,1657.8539239999955,1657.8539239999955,1661.1550777000084,['r'],1,[3.2905873999989126],[None],1661.1559891999932,1661.1704648000014,1661.1704648000014,1661.1704648000014,1662.38733160001,5,1.2160319999966305,5,1.2160319999966305,,,,,,sub42_NB,001,2026-01-20_11h33.18.538,recognitionstage,,2025.1.1,60.11508431893934,2026-01-20 11h34.13.178280 +0530,
,,,8,8,0,12,frames\Vid12_EM_T.png,frames\Vid12_L.png,['l'],1,[4.426610900001833],[None],5,1.4328536000102758,,,,,0,8,8,11,1662.453983799991,,19,Male,Right handed,Normal,,,,,,,,,,,,,,,,,,,,,,,,,,,,,,,,,,,,,,,,1662.431866400002,1662.453983799991,1662.453983799991,1662.453983799991,1662.453983799991,1662.453983799991,1662.453983799991,1666.8877181000134,['l'],1,[4.426610900001833],[None],1666.8883444000094,1666.9036555000057,1666.9036555000057,1666.9036555000057,1668.338083300012,5,1.4328536000102758,5,1.4328536000102758,,,,,,sub42_NB,001,2026-01-20_11h33.18.538,recognitionstage,,2025.1.1,60.11508431893934,2026-01-20 11h34.13.178280 +0530,
,,,9,9,0,5,frames\Vid5_EM_T.png,frames\Vid5_L.png,['r'],1,[3.17906690001837],[None],5,0.979817000014009,,,,,0,9,9,4,1668.3897136999876,,19,Male,Right handed,Normal,,,,,,,,,,,,,,,,,,,,,,,,,,,,,,,,,,,,,,,,1668.3675539999967,1668.3897136999876,1668.3897136999876,1668.3897136999876,1668.3897136999876,1668.3897136999876,1668.3897136999876,1671.573451400007,['r'],1,[3.17906690001837],[None],1671.5745334000094,1671.5867526000075,1671.5867526000075,1671.5867526000075,1672.5710724999954,5,0.979817000014009,5,0.979817000014009,,,,,,sub42_NB,001,2026-01-20_11h33.18.538,recognitionstage,,2025.1.1,60.11508431893934,2026-01-20 11h34.13.178280 +0530,
,,,10,10,0,19,frames\Vid19_BB_T.png,frames\Vid19_L.png,['l'],1,[5.267178700014483],[None],5,1.4993331000150647,,,,,0,10,10,18,1672.6054689000011,,19,Male,Right handed,Normal,,,,,,,,,,,,,,,,,,,,,,,,,,,,,,,,,,,,,,,,1672.5823271000118,1672.6054689000011,1672.6054689000011,1672.6054689000011,1672.6054689000011,1672.6054689000011,1672.6054689000011,1677.8889125999995,['l'],1,[5.267178700014483],[None],1677.8896549000056,1677.903493299993,1677.903493299993,1677.903493299993,1679.4044502000033,5,1.4993331000150647,5,1.4993331000150647,,,,,,sub42_NB,001,2026-01-20_11h33.18.538,recognitionstage,,2025.1.1,60.11508431893934,2026-01-20 11h34.13.178280 +0530,
,,,11,11,0,13,frames\Vid13_BB_T.png,frames\Vid13_L.png,['r'],1,[14.546323499991558],[None],1,1.3470460000098683,,,,,0,11,11,12,1679.4542036000057,,19,Male,Right handed,Normal,,,,,,,,,,,,,,,,,,,,,,,,,,,,,,,,,,,,,,,,1679.4367688999919,1679.4542036000057,1679.4542036000057,1679.4542036000057,1679.4542036000057,1679.4542036000057,1679.4542036000057,1694.0064004999876,['r'],1,[14.546323499991558],[None],1694.0074170000153,1694.019942599989,1694.019942599989,1694.019942599989,1695.3708157000074,1,1.3470460000098683,1,1.3470460000098683,,,,,,sub42_NB,001,2026-01-20_11h33.18.538,recognitionstage,,2025.1.1,60.11508431893934,2026-01-20 11h34.13.178280 +0530,
,,,12,12,0,15,frames\Vid15_BB_T.png,frames\Vid15_L.png,['r'],1,[8.624609899998177],[None],2,1.6156359000015073,,,,,0,12,12,14,1695.4398965,,19,Male,Right handed,Normal,,,,,,,,,,,,,,,,,,,,,,,,,,,,,,,,,,,,,,,,1695.4198232000053,1695.4398965,1695.4398965,1695.4398965,1695.4398965,1695.4398965,1695.4398965,1704.0716800999944,['r'],1,[8.624609899998177],[None],1704.072507200006,1704.0871741999872,1704.0871741999872,1704.0871741999872,1705.7043318999931,2,1.6156359000015073,2,1.6156359000015073,,,,,,sub42_NB,001,2026-01-20_11h33.18.538,recognitionstage,,2025.1.1,60.11508431893934,2026-01-20 11h34.13.178280 +0530,
,,,13,13,0,4,frames\Vid4_EM_T.png,frames\Vid4_L.png,['r'],1,[3.5711145999957807],[None],5,1.4481841000088025,,,,,0,13,13,3,1705.7733470000094,,19,Male,Right handed,Normal,,,,,,,,,,,,,,,,,,,,,,,,,,,,,,,,,,,,,,,,1705.749766599998,1705.7733470000094,1705.7733470000094,1705.7733470000094,1705.7733470000094,1705.7733470000094,1705.7733470000094,1709.355349599995,['r'],1,[3.5711145999957807],[None],1709.3561064999958,1709.3706711000123,1709.3706711000123,1709.3706711000123,1710.8218964000116,5,1.4481841000088025,5,1.4481841000088025,,,,,,sub42_NB,001,2026-01-20_11h33.18.538,recognitionstage,,2025.1.1,60.11508431893934,2026-01-20 11h34.13.178280 +0530,
,,,14,14,0,22,frames\Vid22_EM_T.png,frames\Vid22_L.png,['l'],1,[3.128415599989239],[None],5,1.1647744000074454,,,,,0,14,14,21,1710.856311999989,,19,Male,Right handed,Normal,,,,,,,,,,,,,,,,,,,,,,,,,,,,,,,,,,,,,,,,1710.835996800015,1710.856311999989,1710.856311999989,1710.856311999989,1710.856311999989,1710.856311999989,1710.856311999989,1713.9888860000065,['l'],1,[3.128415599989239],[None],1713.989848600002,1714.0036296999897,1714.0036296999897,1714.0036296999897,1715.1707008999947,5,1.1647744000074454,5,1.1647744000074454,,,,,,sub42_NB,001,2026-01-20_11h33.18.538,recognitionstage,,2025.1.1,60.11508431893934,2026-01-20 11h34.13.178280 +0530,
,,,15,15,0,6,frames\Vid6_BB_T.png,frames\Vid6_L.png,['r'],1,[2.9391933000006247],[None],5,0.798544099990977,,,,,0,15,15,5,1715.2372415999998,,19,Male,Right handed,Normal,,,,,,,,,,,,,,,,,,,,,,,,,,,,,,,,,,,,,,,,1715.214969499997,1715.2372415999998,1715.2372415999998,1715.2372415999998,1715.2372415999998,1715.2372415999998,1715.2372415999998,1718.1889220000012,['r'],1,[2.9391933000006247],[None],1718.1897930999985,1718.20315690001,1718.20315690001,1718.20315690001,1719.0042696000019,5,0.798544099990977,5,0.798544099990977,,,,,,sub42_NB,001,2026-01-20_11h33.18.538,recognitionstage,,2025.1.1,60.11508431893934,2026-01-20 11h34.13.178280 +0530,
,,,16,16,0,14,frames\Vid14_BB_T.png,frames\Vid14_L.png,['r'],1,[4.894695700000739],[None],5,1.3496487000084016,,,,,0,16,16,13,1719.0738980000024,,19,Male,Right handed,Normal,,,,,,,,,,,,,,,,,,,,,,,,,,,,,,,,,,,,,,,,1719.0506446000072,1719.0738980000024,1719.0738980000024,1719.0738980000024,1719.0738980000024,1719.0738980000024,1719.0738980000024,1723.9718404999876,['r'],1,[4.894695700000739],[None],1723.9726832000015,1723.9870864000113,1723.9870864000113,1723.9870864000113,1725.337170999992,5,1.3496487000084016,5,1.3496487000084016,,,,,,sub42_NB,001,2026-01-20_11h33.18.538,recognitionstage,,2025.1.1,60.11508431893934,2026-01-20 11h34.13.178280 +0530,
,,,17,17,0,31,frames\Vid31_EM_T.png,frames\Vid31_L.png,['l'],1,[2.9544516000023577],[None],5,0.8487074000004213,,,,,0,17,17,30,1725.3580811000138,,19,Male,Right handed,Normal,,,,,,,,,,,,,,,,,,,,,,,,,,,,,,,,,,,,,,,,1725.346860699996,1725.3580811000138,1725.3580811000138,1725.3580811000138,1725.3580811000138,1725.3580811000138,1725.3580811000138,1728.322371999995,['l'],1,[2.9544516000023577],[None],1728.3232621999923,1728.3366091999924,1728.3366091999924,1728.3366091999924,1729.1875238000066,5,0.8487074000004213,5,0.8487074000004213,,,,,,sub42_NB,001,2026-01-20_11h33.18.538,recognitionstage,,2025.1.1,60.11508431893934,2026-01-20 11h34.13.178280 +0530,
,,,18,18,0,25,frames\Vid25_BB_T.png,frames\Vid25_L.png,['l'],1,[3.4365251999988686],[None],5,0.9477902000071481,,,,,0,18,18,24,1729.2199682999926,,19,Male,Right handed,Normal,,,,,,,,,,,,,,,,,,,,,,,,,,,,,,,,,,,,,,,,1729.199235600012,1729.2199682999926,1729.2199682999926,1729.2199682999926,1729.2199682999926,1729.2199682999926,1729.2199682999926,1732.6724356999912,['l'],1,[3.4365251999988686],[None],1732.6733801999944,1732.6866381000145,1732.6866381000145,1732.6866381000145,1733.6382141000067,5,0.9477902000071481,5,0.9477902000071481,,,,,,sub42_NB,001,2026-01-20_11h33.18.538,recognitionstage,,2025.1.1,60.11508431893934,2026-01-20 11h34.13.178280 +0530,
,,,19,19,0,9,frames\Vid9_EM_T.png,frames\Vid9_L.png,['r'],1,[5.409588500013342],[None],5,0.9144088999892119,,,,,0,19,19,8,1733.6871510999918,,19,Male,Right handed,Normal,,,,,,,,,,,,,,,,,,,,,,,,,,,,,,,,,,,,,,,,1733.6746978000156,1733.6871510999918,1733.6871510999918,1733.6871510999918,1733.6871510999918,1733.6871510999918,1733.6871510999918,1739.1056914000073,['r'],1,[5.409588500013342],[None],1739.1065997999976,1739.1200139000139,1739.1200139000139,1739.1200139000139,1740.0382594999974,5,0.9144088999892119,5,0.9144088999892119,,,,,,sub42_NB,001,2026-01-20_11h33.18.538,recognitionstage,,2025.1.1,60.11508431893934,2026-01-20 11h34.13.178280 +0530,
,,,20,20,0,1,frames\Vid1_EM_T.png,frames\Vid1_L.png,['l'],1,[4.901977000001352],[None],5,1.5478817999828607,,,,,0,20,20,0,1740.1064970000007,,19,Male,Right handed,Normal,,,,,,,,,,,,,,,,,,,,,,,,,,,,,,,,,,,,,,,,1740.0868611999904,1740.1064970000007,1740.1064970000007,1740.1064970000007,1740.1064970000007,1740.1064970000007,1740.1064970000007,1745.0222081000102,['l'],1,[4.901977000001352],[None],1745.0230485000066,1745.0366107000154,1745.0366107000154,1745.0366107000154,1746.5877402999904,5,1.5478817999828607,5,1.5478817999828607,,,,,,sub42_NB,001,2026-01-20_11h33.18.538,recognitionstage,,2025.1.1,60.11508431893934,2026-01-20 11h34.13.178280 +0530,
,,,21,21,0,30,frames\Vid30_EM_T.png,frames\Vid30_L.png,['r'],1,[5.592344499978935],[None],5,1.5157850999967195,,,,,0,21,21,29,1746.6082702999993,,19,Male,Right handed,Normal,,,,,,,,,,,,,,,,,,,,,,,,,,,,,,,,,,,,,,,,1746.5965657999914,1746.6082702999993,1746.6082702999993,1746.6082702999993,1746.6082702999993,1746.6082702999993,1746.6082702999993,1752.2049466999888,['r'],1,[5.592344499978935],[None],1752.2058774000034,1752.2201913000026,1752.2201913000026,1752.2201913000026,1753.7378450999968,5,1.5157850999967195,5,1.5157850999967195,,,,,,sub42_NB,001,2026-01-20_11h33.18.538,recognitionstage,,2025.1.1,60.11508431893934,2026-01-20 11h34.13.178280 +0530,
,,,22,22,0,27,frames\Vid27_BB_T.png,frames\Vid27_L.png,['r'],1,[5.030727200006368],[None],5,0.881970700022066,,,,,0,22,22,26,1753.7698569000058,,19,Male,Right handed,Normal,,,,,,,,,,,,,,,,,,,,,,,,,,,,,,,,,,,,,,,,1753.7499899000104,1753.7698569000058,1753.7698569000058,1753.7698569000058,1753.7698569000058,1753.7698569000058,1753.7698569000058,1758.8053537000087,['r'],1,[5.030727200006368],[None],1758.8063013000065,1758.8209123999986,1758.8209123999986,1758.8209123999986,1759.70410480001,5,0.881970700022066,5,0.881970700022066,,,,,,sub42_NB,001,2026-01-20_11h33.18.538,recognitionstage,,2025.1.1,60.11508431893934,2026-01-20 11h34.13.178280 +0530,
,,,23,23,0,11,frames\Vid11_EM_T.png,frames\Vid11_L.png,['l'],1,[2.390829899988603],[None],5,0.8798794000176713,,,,,0,23,23,10,1759.7539009999891,,19,Male,Right handed,Normal,,,,,,,,,,,,,,,,,,,,,,,,,,,,,,,,,,,,,,,,1759.745509100001,1759.7539009999891,1759.7539009999891,1759.7539009999891,1759.7539009999891,1759.7539009999891,1759.7539009999891,1762.1568200000038,['l'],1,[2.390829899988603],[None],1762.1581983999931,1762.1849221999873,1762.1849221999873,1762.1849221999873,1763.0544079999963,5,0.8798794000176713,5,0.8798794000176713,,,,,,sub42_NB,001,2026-01-20_11h33.18.538,recognitionstage,,2025.1.1,60.11508431893934,2026-01-20 11h34.13.178280 +0530,
,,,24,24,0,17,frames\Vid17_BB_T.png,frames\Vid17_L.png,['l'],1,[2.799104800011264],[None],5,0.9653349000145681,,,,,0,24,24,16,1763.0894091000082,,19,Male,Right handed,Normal,,,,,,,,,,,,,,,,,,,,,,,,,,,,,,,,,,,,,,,,1763.0787193000142,1763.0894091000082,1763.0894091000082,1763.0894091000082,1763.0894091000082,1763.0894091000082,1763.0894091000082,1765.9058753999998,['l'],1,[2.799104800011264],[None],1765.9067150999908,1765.920160700014,1765.920160700014,1765.920160700014,1766.887547899998,5,0.9653349000145681,5,0.9653349000145681,,,,,,sub42_NB,001,2026-01-20_11h33.18.538,recognitionstage,,2025.1.1,60.11508431893934,2026-01-20 11h34.13.178280 +0530,
,,,25,25,0,26,frames\Vid26_EM_T.png,frames\Vid26_L.png,['l'],1,[3.1671878999914043],[None],5,1.532173600018723,,,,,0,25,25,25,1766.9213595000037,,19,Male,Right handed,Normal,,,,,,,,,,,,,,,,,,,,,,,,,,,,,,,,,,,,,,,,1766.9028064000013,1766.9213595000037,1766.9213595000037,1766.9213595000037,1766.9213595000037,1766.9213595000037,1766.9213595000037,1770.1052582999982,['l'],1,[3.1671878999914043],[None],1770.1059374999895,1770.1202521999949,1770.1202521999949,1770.1202521999949,1771.6544289999874,5,1.532173600018723,5,1.532173600018723,,,,,,sub42_NB,001,2026-01-20_11h33.18.538,recognitionstage,,2025.1.1,60.11508431893934,2026-01-20 11h34.13.178280 +0530,
,,,26,26,0,20,frames\Vid20_EM_T.png,frames\Vid20_L.png,['l'],1,[2.832103599997936],[None],5,0.9651319999829866,,,,,0,26,26,19,1771.6723521999957,,19,Male,Right handed,Normal,,,,,,,,,,,,,,,,,,,,,,,,,,,,,,,,,,,,,,,,1771.6615109000122,1771.6723521999957,1771.6723521999957,1771.6723521999957,1771.6723521999957,1771.6723521999957,1771.6723521999957,1774.505510899995,['l'],1,[2.832103599997936],[None],1774.506526799989,1774.519944700005,1774.519944700005,1774.519944700005,1775.4878622000106,5,0.9651319999829866,5,0.9651319999829866,,,,,,sub42_NB,001,2026-01-20_11h33.18.538,recognitionstage,,2025.1.1,60.11508431893934,2026-01-20 11h34.13.178280 +0530,
,,,27,27,0,16,frames\Vid16_EM_T.png,frames\Vid16_L.png,['l'],1,[6.031410900002811],[None],2,1.1491845000127796,,,,,0,27,27,15,1775.5370412000048,,19,Male,Right handed,Normal,,,,,,,,,,,,,,,,,,,,,,,,,,,,,,,,,,,,,,,,1775.5297759000096,1775.5370412000048,1775.5370412000048,1775.5370412000048,1775.5370412000048,1775.5370412000048,1775.5370412000048,1781.5715000999917,['l'],1,[6.031410900002811],[None],1781.5722465,1781.5870059000154,1781.5870059000154,1781.5870059000154,1782.7378061999916,2,1.1491845000127796,2,1.1491845000127796,,,,,,sub42_NB,001,2026-01-20_11h33.18.538,recognitionstage,,2025.1.1,60.11508431893934,2026-01-20 11h34.13.178280 +0530,
,,,28,28,0,28,frames\Vid28_EM_T.png,frames\Vid28_L.png,['l'],1,[3.220217499998398],[None],5,1.0319792999944184,,,,,0,28,28,27,1782.7725346999941,,19,Male,Right handed,Normal,,,,,,,,,,,,,,,,,,,,,,,,,,,,,,,,,,,,,,,,1782.7481035999954,1782.7725346999941,1782.7725346999941,1782.7725346999941,1782.7725346999941,1782.7725346999941,1782.7725346999941,1786.0054054000066,['l'],1,[3.220217499998398],[None],1786.0065802999889,1786.0352792000049,1786.0352792000049,1786.0352792000049,1787.0547618000128,5,1.0319792999944184,5,1.0319792999944184,,,,,,sub42_NB,001,2026-01-20_11h33.18.538,recognitionstage,,2025.1.1,60.11508431893934,2026-01-20 11h34.13.178280 +0530,
,,,29,29,0,8,frames\Vid8_BB_T.png,frames\Vid8_L.png,['l'],1,[3.104630999994697],[None],5,0.7642400999902748,,,,,0,29,29,7,1787.103942000016,,19,Male,Right handed,Normal,,,,,,,,,,,,,,,,,,,,,,,,,,,,,,,,,,,,,,,,1787.0914723000024,1787.103942000016,1787.103942000016,1787.103942000016,1787.103942000016,1787.103942000016,1787.103942000016,1790.2230317000067,['l'],1,[3.104630999994697],[None],1790.2242135000124,1790.2365073999972,1790.2365073999972,1790.2365073999972,1791.004214399989,5,0.7642400999902748,5,0.7642400999902748,,,,,,sub42_NB,001,2026-01-20_11h33.18.538,recognitionstage,,2025.1.1,60.11508431893934,2026-01-20 11h34.13.178280 +0530,
,,,30,30,0,33,frames\Vid33_BB_T.png,frames\Vid33_L.png,['r'],1,[6.591676600015489],[None],4,1.0303237000189256,,,,,0,30,30,32,1791.0249904000084,,19,Male,Right handed,Normal,,,,,,,,,,,,,,,,,,,,,,,,,,,,,,,,,,,,,,,,1791.0132950000116,1791.0249904000084,1791.0249904000084,1791.0249904000084,1791.0249904000084,1791.0249904000084,1791.0249904000084,1797.6232137999905,['r'],1,[6.591676600015489],[None],1797.6244875999982,1797.6516960000154,1797.6516960000154,1797.6516960000154,1798.6712536000123,4,1.0303237000189256,4,1.0303237000189256,,,,,,sub42_NB,001,2026-01-20_11h33.18.538,recognitionstage,,2025.1.1,60.11508431893934,2026-01-20 11h34.13.178280 +0530,
,,,31,31,0,40,frames\Vid40_EM_T.png,frames\Vid40_L.png,['r'],1,[2.8329469000163954],[None],5,2.531189600005746,,,,,0,31,31,39,1798.703489800013,,19,Male,Right handed,Normal,,,,,,,,,,,,,,,,,,,,,,,,,,,,,,,,,,,,,,,,1798.6819549000065,1798.703489800013,1798.703489800013,1798.703489800013,1798.703489800013,1798.703489800013,1798.703489800013,1801.5390210000041,['r'],1,[2.8329469000163954],[None],1801.5398577000014,1801.5536951000104,1801.5536951000104,1801.5536951000104,1804.087638900004,5,2.531189600005746,5,2.531189600005746,,,,,,sub42_NB,001,2026-01-20_11h33.18.538,recognitionstage,,2025.1.1,60.11508431893934,2026-01-20 11h34.13.178280 +0530,
,,,32,32,0,37,frames\Vid37_BB_T.png,frames\Vid37_L.png,['r'],1,[3.1207745999854524],[None],5,1.0654701000021305,,,,,0,32,32,36,1804.1196666999895,,19,Male,Right handed,Normal,,,,,,,,,,,,,,,,,,,,,,,,,,,,,,,,,,,,,,,,1804.0985658999998,1804.1196666999895,1804.1196666999895,1804.1196666999895,1804.1196666999895,1804.1196666999895,1804.1196666999895,1807.2551830000011,['r'],1,[3.1207745999854524],[None],1807.2561357000086,1807.2704153000086,1807.2704153000086,1807.2704153000086,1808.3378612000088,5,1.0654701000021305,5,1.0654701000021305,,,,,,sub42_NB,001,2026-01-20_11h33.18.538,recognitionstage,,2025.1.1,60.11508431893934,2026-01-20 11h34.13.178280 +0530,
,,,33,33,0,34,frames\Vid34_BB_T.png,frames\Vid34_L.png,['l'],1,[5.733517299988307],[None],5,0.9972997000149917,,,,,0,33,33,33,1808.3552536999923,,19,Male,Right handed,Normal,,,,,,,,,,,,,,,,,,,,,,,,,,,,,,,,,,,,,,,,1808.3476620000147,1808.3552536999923,1808.3552536999923,1808.3552536999923,1808.3552536999923,1808.3552536999923,1808.3552536999923,1814.1063900000008,['l'],1,[5.733517299988307],[None],1814.1075899999996,1814.1199382999912,1814.1199382999912,1814.1199382999912,1815.1206986999896,5,0.9972997000149917,5,0.9972997000149917,,,,,,sub42_NB,001,2026-01-20_11h33.18.538,recognitionstage,,2025.1.1,60.11508431893934,2026-01-20 11h34.13.178280 +0530,
,,,34,34,0,7,frames\Vid7_EM_T.png,frames\Vid7_L.png,['r'],1,[4.413972400012426],[None],5,0.6464899999846239,,,,,0,34,34,6,1815.1705894999905,,19,Male,Right handed,Normal,,,,,,,,,,,,,,,,,,,,,,,,,,,,,,,,,,,,,,,,1815.1636322000122,1815.1705894999905,1815.1705894999905,1815.1705894999905,1815.1705894999905,1815.1705894999905,1815.1705894999905,1819.5900091000076,['r'],1,[4.413972400012426],[None],1819.5912237000011,1819.603153300006,1819.603153300006,1819.603153300006,1820.2542365000118,5,0.6464899999846239,5,0.6464899999846239,,,,,,sub42_NB,001,2026-01-20_11h33.18.538,recognitionstage,,2025.1.1,60.11508431893934,2026-01-20 11h34.13.178280 +0530,
,,,35,35,0,39,frames\Vid39_BB_T.png,frames\Vid39_L.png,['r'],1,[6.286326699977508],[None],5,0.6972252000123262,,,,,0,35,35,38,1820.2741453000053,,19,Male,Right handed,Normal,,,,,,,,,,,,,,,,,,,,,,,,,,,,,,,,,,,,,,,,1820.2623442999902,1820.2741453000053,1820.2741453000053,1820.2741453000053,1820.2741453000053,1820.2741453000053,1820.2741453000053,1826.5726499999873,['r'],1,[6.286326699977508],[None],1826.5738579999888,1826.586937999993,1826.586937999993,1826.586937999993,1827.28761639999,5,0.6972252000123262,5,0.6972252000123262,,,,,,sub42_NB,001,2026-01-20_11h33.18.538,recognitionstage,,2025.1.1,60.11508431893934,2026-01-20 11h34.13.178280 +0530,
,,,36,36,0,29,frames\Vid29_BB_T.png,frames\Vid29_L.png,['r'],1,[4.529053799982648],[None],5,0.8662462999927811,,,,,0,36,36,28,1827.3195919000136,,19,Male,Right handed,Normal,,,,,,,,,,,,,,,,,,,,,,,,,,,,,,,,,,,,,,,,1827.298867000005,1827.3195919000136,1827.3195919000136,1827.3195919000136,1827.3195919000136,1827.3195919000136,1827.3195919000136,1831.8546874999884,['r'],1,[4.529053799982648],[None],1831.855667099997,1831.8703674999997,1831.8703674999997,1831.8703674999997,1832.7377315000049,5,0.8662462999927811,5,0.8662462999927811,,,,,,sub42_NB,001,2026-01-20_11h33.18.538,recognitionstage,,2025.1.1,60.11508431893934,2026-01-20 11h34.13.178280 +0530,
,,,37,37,0,35,frames\Vid35_EM_T.png,frames\Vid35_L.png,['r'],1,[2.6293138999899384],[None],5,0.7155685999896377,,,,,0,37,37,34,1832.755188500014,,19,Male,Right handed,Normal,,,,,,,,,,,,,,,,,,,,,,,,,,,,,,,,,,,,,,,,1832.747616800014,1832.755188500014,1832.755188500014,1832.755188500014,1832.755188500014,1832.755188500014,1832.755188500014,1835.38872789999,['r'],1,[2.6293138999899384],[None],1835.3896564999886,1835.403966200014,1835.403966200014,1835.403966200014,1836.1205860000046,5,0.7155685999896377,5,0.7155685999896377,,,,,,sub42_NB,001,2026-01-20_11h33.18.538,recognitionstage,,2025.1.1,60.11508431893934,2026-01-20 11h34.13.178280 +0530,
,,,38,38,0,32,frames\Vid32_EM_T.png,frames\Vid32_L.png,['r'],1,[2.743466499989154],[None],5,0.8811410999915097,,,,,0,38,38,31,1836.1530447000114,,19,Male,Right handed,Normal,,,,,,,,,,,,,,,,,,,,,,,,,,,,,,,,,,,,,,,,1836.1329848000023,1836.1530447000114,1836.1530447000114,1836.1530447000114,1836.1530447000114,1836.1530447000114,1836.1530447000114,1838.9056122000038,['r'],1,[2.743466499989154],[None],1838.9065253000008,1838.9204107999976,1838.9204107999976,1838.9204107999976,1839.8042274999898,5,0.8811410999915097,5,0.8811410999915097,,,,,,sub42_NB,001,2026-01-20_11h33.18.538,recognitionstage,,2025.1.1,60.11508431893934,2026-01-20 11h34.13.178280 +0530,
,,,39,39,0,36,frames\Vid36_BB_T.png,frames\Vid36_L.png,['r'],1,[2.6277542999887373],[None],5,0.7157197000051383,,,,,0,39,39,35,1839.836739099992,,19,Male,Right handed,Normal,,,,,,,,,,,,,,,,,,,,,,,,,,,,,,,,,,,,,,,,1839.8156814000104,1839.836739099992,1839.836739099992,1839.836739099992,1839.836739099992,1839.836739099992,1839.836739099992,1842.4716148000152,['r'],1,[2.6277542999887373],[None],1842.472428500012,1842.4872861999902,1842.4872861999902,1842.4872861999902,1843.2038885999937,5,0.7157197000051383,5,0.7157197000051383,,,,,,sub42_NB,001,2026-01-20_11h33.18.538,recognitionstage,,2025.1.1,60.11508431893934,2026-01-20 11h34.13.178280 +0530,
,,,,,,,,,,,,,,,,,,,,,,,,,19,Male,Right handed,Normal,,,,,,,,,,,,,,,,,,,,,,,,,,,,,,,,,,,,,,,,,,,,,,,,,,,,,,,,,,,,,1843.2039869000146,1843.2210852999997,1843.2210852999997,1863.204840099992,None,sub42_NB,001,2026-01-20_11h33.18.538,recognitionstage,,2025.1.1,60.11508431893934,2026-01-20 11h34.13.178280 +0530,
