path,duration,is_repeat,thisN,thisTrialN,thisRepN,movie_id,target_img,lure_img,resp.keys,resp.corr,resp.rt,resp.duration,conf_radio.response,conf_radio.rt,movie.thisRepN,movie.thisTrialN,movie.thisN,movie.thisIndex,recogloop.thisRepN,recogloop.thisTrialN,recogloop.thisN,recogloop.thisIndex,thisRow.t,notes,age,gender,handedness,vision,caffeine_2h,alcohol_smoke_12h,demographics.started,demographics.stopped,Instructions.started,text1.started,key_resp.started,Instructions.stopped,key_resp.keys,key_resp.rt,key_resp.duration,instruction_2.started,text2.started,key_resp_2.started,instruction_2.stopped,key_resp_2.keys,key_resp_2.rt,key_resp_2.duration,Videos.started,movie_2.started,vigilance_resp.started,movie_2.stopped,Videos.stopped,movie.vigilance_resp.keys,vigilance_pressed,vigilance_correct,ISI.started,text.started,text.stopped,ISI.stopped,movie.vigilance_resp.rt,movie.vigilance_resp.duration,recognition.started,text_4.started,key_resp_3.started,recognition.stopped,key_resp_3.keys,key_resp_3.rt,key_resp_3.duration,recognition_task.started,leftimage.started,rightimage.started,resp.started,frames_question.started,right_label.started,left_label.started,recognition_task.stopped,recogloop.resp.keys,recogloop.resp.corr,recogloop.resp.rt,recogloop.resp.duration,confidence.started,conf_text.started,conf_radio.started,conf_label.started,confidence.stopped,recogloop.conf_radio.response,recogloop.conf_radio.rt,confidence,confidence_rt,thank_you.started,text_6.started,key_resp_4.started,thank_you.stopped,key_resp_4.keys,key_resp_4.rt,key_resp_4.duration,participant,session,date,expName,expVersion,psychopyVersion,frameRate,expStart,...105
,,,,,,,,,,,,,,,,,,,,,,,,,22,Male,Left Handed,Normal,Caffeine consumed in last 2 hours?,Alcohol or smoking in last 12 hours?,0.01751940000394825,0.021101599995745346,,,,,,,,,,,,,,,,,,,,,,,,,,,,,,,,,,,,,,,,,,,,,,,,,,,,,,,,,,,,,,,,Sub39_AB,001,2026-01-19_17h56.12.732,recognitionstage,,2025.1.1,59.9513914098711,2026-01-19 17h58.42.001049 +0530,
,,,,,,,,,,,,,,,,,,,,,,,,,22,Male,Left Handed,Normal,,,,,0.021123400001670234,0.03661209999700077,0.03661209999700077,14.587393199995859,space,14.541444600006798,None,,,,,,,,,,,,,,,,,,,,,,,,,,,,,,,,,,,,,,,,,,,,,,,,,,,,,,,,,Sub39_AB,001,2026-01-19_17h56.12.732,recognitionstage,,2025.1.1,59.9513914098711,2026-01-19 17h58.42.001049 +0530,
,,,,,,,,,,,,,,,,,,,,,,,,,22,Male,Left Handed,Normal,,,,,,,,,,,,14.587442500007455,14.604825100002927,14.604825100002927,28.171408299996983,space,13.557517000008374,None,,,,,,,,,,,,,,,,,,,,,,,,,,,,,,,,,,,,,,,,,,,,,,,,,,Sub39_AB,001,2026-01-19_17h56.12.732,recognitionstage,,2025.1.1,59.9513914098711,2026-01-19 17h58.42.001049 +0530,
abrupt_videos\abrupt_22.mp4,34,0,44,44,0,,,,,,,,,,0,44,44,24,,,,,1556.3859962999995,,22,Male,Left Handed,Normal,,,,,,,,,,,,,,,,,,,1556.335187500008,1556.3859962999995,1556.3859962999995,1591.1510742999963,1591.0031127999973,None,0,1,1591.138454800006,1591.1510742999963,1593.6530776,1593.6378706999967,[5.812907100000302],[None],1593.6379525000084,1593.6530776,1593.6530776,1643.7718930999981,space,50.11698230000911,None,,,,,,,,,,,,,,,,,,,,,,,,,,,,,Sub39_AB,001,2026-01-19_17h56.12.732,recognitionstage,,2025.1.1,59.9513914098711,2026-01-19 17h58.42.001049 +0530,
,,,0,0,0,21,frames\Vid21_BB_T.png,frames\Vid21_L.png,['l'],0,[14.088629300007597],[None],2,39.19864360000065,,,,,0,0,0,20,1643.8013268000068,,22,Male,Left Handed,Normal,,,,,,,,,,,,,,,,,,,,,,,,,,,,,,,,,,,,,,,,1643.7915615000093,1643.8013268000068,1643.8013268000068,1643.8013268000068,1643.8013268000068,1643.8013268000068,1643.8013268000068,1657.9043009000015,['l'],0,[14.088629300007597],[None],1657.9051730000065,1657.9343016000057,1657.9343016000057,1657.9343016000057,1697.1203370000003,2,39.19864360000065,2,39.19864360000065,,,,,,,,Sub39_AB,001,2026-01-19_17h56.12.732,recognitionstage,,2025.1.1,59.9513914098711,2026-01-19 17h58.42.001049 +0530,
,,,1,1,0,6,frames\Vid6_BB_T.png,frames\Vid6_L.png,['l'],1,[20.329052700006287],[None],2,2.798497800002224,,,,,0,1,1,5,1697.1850084000034,,22,Male,Left Handed,Normal,,,,,,,,,,,,,,,,,,,,,,,,,,,,,,,,,,,,,,,,1697.1701746000035,1697.1850084000034,1697.1850084000034,1697.1850084000034,1697.1850084000034,1697.1850084000034,1697.1850084000034,1717.5206519000058,['l'],1,[20.329052700006287],[None],1717.5217372000043,1717.5362553000014,1717.5362553000014,1717.5362553000014,1720.3375212999963,2,2.798497800002224,2,2.798497800002224,,,,,,,,Sub39_AB,001,2026-01-19_17h56.12.732,recognitionstage,,2025.1.1,59.9513914098711,2026-01-19 17h58.42.001049 +0530,
,,,2,2,0,13,frames\Vid13_BB_T.png,frames\Vid13_L.png,['l'],0,[12.19232839999313],[None],3,1.83216469999752,,,,,0,2,2,12,1720.4017316999962,,22,Male,Left Handed,Normal,,,,,,,,,,,,,,,,,,,,,,,,,,,,,,,,,,,,,,,,1720.3868814000016,1720.4017316999962,1720.4017316999962,1720.4017316999962,1720.4017316999962,1720.4017316999962,1720.4017316999962,1732.603913800005,['l'],0,[12.19232839999313],[None],1732.6046589000034,1732.6197068000038,1732.6197068000038,1732.6197068000038,1734.5015380999976,3,1.83216469999752,3,1.83216469999752,,,,,,,,Sub39_AB,001,2026-01-19_17h56.12.732,recognitionstage,,2025.1.1,59.9513914098711,2026-01-19 17h58.42.001049 +0530,
,,,3,3,0,14,frames\Vid14_BB_T.png,frames\Vid14_L.png,['r'],1,[20.126628799989703],[None],4,1.4982753999938723,,,,,0,3,3,13,1734.5554063000018,,22,Male,Left Handed,Normal,,,,,,,,,,,,,,,,,,,,,,,,,,,,,,,,,,,,,,,,1734.5462896999961,1734.5554063000018,1734.5554063000018,1734.5554063000018,1734.5554063000018,1734.5554063000018,1734.5554063000018,1754.6878149999975,['r'],1,[20.126628799989703],[None],1754.6887722999963,1754.7027652999968,1754.7027652999968,1754.7027652999968,1756.204072499997,4,1.4982753999938723,4,1.4982753999938723,,,,,,,,Sub39_AB,001,2026-01-19_17h56.12.732,recognitionstage,,2025.1.1,59.9513914098711,2026-01-19 17h58.42.001049 +0530,
,,,4,4,0,27,frames\Vid27_BB_T.png,frames\Vid27_L.png,['r'],1,[9.658514099995955],[None],3,1.4495929000113392,,,,,0,4,4,26,1756.2235752999986,,22,Male,Left Handed,Normal,,,,,,,,,,,,,,,,,,,,,,,,,,,,,,,,,,,,,,,,1756.2136414999986,1756.2235752999986,1756.2235752999986,1756.2235752999986,1756.2235752999986,1756.2235752999986,1756.2235752999986,1765.8876525000087,['r'],1,[9.658514099995955],[None],1765.8884315000032,1765.9031082000001,1765.9031082000001,1765.9031082000001,1767.352830600008,3,1.4495929000113392,3,1.4495929000113392,,,,,,,,Sub39_AB,001,2026-01-19_17h56.12.732,recognitionstage,,2025.1.1,59.9513914098711,2026-01-19 17h58.42.001049 +0530,
,,,5,5,0,29,frames\Vid29_BB_T.png,frames\Vid29_L.png,['r'],1,[5.7987981000042055],[None],5,1.2968882000131998,,,,,0,5,5,28,1767.371199000001,,22,Male,Left Handed,Normal,,,,,,,,,,,,,,,,,,,,,,,,,,,,,,,,,,,,,,,,1767.363380099996,1767.371199000001,1767.371199000001,1767.371199000001,1767.371199000001,1767.371199000001,1767.371199000001,1773.1725661000091,['r'],1,[5.7987981000042055],[None],1773.1736296000017,1773.1857506000088,1773.1857506000088,1773.1857506000088,1774.4863096000045,5,1.2968882000131998,5,1.2968882000131998,,,,,,,,Sub39_AB,001,2026-01-19_17h56.12.732,recognitionstage,,2025.1.1,59.9513914098711,2026-01-19 17h58.42.001049 +0530,
,,,6,6,0,12,frames\Vid12_EM_T.png,frames\Vid12_L.png,['l'],1,[6.057274000006146],[None],5,1.281710800001747,,,,,0,6,6,11,1774.536729600004,,22,Male,Left Handed,Normal,,,,,,,,,,,,,,,,,,,,,,,,,,,,,,,,,,,,,,,,1774.5289107999997,1774.536729600004,1774.536729600004,1774.536729600004,1774.536729600004,1774.536729600004,1774.536729600004,1780.6054479000013,['l'],1,[6.057274000006146],[None],1780.6064905999956,1780.6194372000027,1780.6194372000027,1780.6194372000027,1781.9037796000048,5,1.281710800001747,5,1.281710800001747,,,,,,,,Sub39_AB,001,2026-01-19_17h56.12.732,recognitionstage,,2025.1.1,59.9513914098711,2026-01-19 17h58.42.001049 +0530,
,,,7,7,0,9,frames\Vid9_EM_T.png,frames\Vid9_L.png,['l'],0,[16.2946840999939],[None],2,1.4478914000064833,,,,,0,7,7,8,1781.9560831999988,,22,Male,Left Handed,Normal,,,,,,,,,,,,,,,,,,,,,,,,,,,,,,,,,,,,,,,,1781.9402972000098,1781.9560831999988,1781.9560831999988,1781.9560831999988,1781.9560831999988,1781.9560831999988,1781.9560831999988,1798.2549030000082,['l'],0,[16.2946840999939],[None],1798.2560540999984,1798.2694991000026,1798.2694991000026,1798.2694991000026,1799.719776500002,2,1.4478914000064833,2,1.4478914000064833,,,,,,,,Sub39_AB,001,2026-01-19_17h56.12.732,recognitionstage,,2025.1.1,59.9513914098711,2026-01-19 17h58.42.001049 +0530,
,,,8,8,0,15,frames\Vid15_BB_T.png,frames\Vid15_L.png,['l'],1,[11.82102259999374],[None],3,1.814392600004794,,,,,0,8,8,14,1799.788962599996,,22,Male,Left Handed,Normal,,,,,,,,,,,,,,,,,,,,,,,,,,,,,,,,,,,,,,,,1799.7671424,1799.788962599996,1799.788962599996,1799.788962599996,1799.788962599996,1799.788962599996,1799.788962599996,1811.6215576999966,['l'],1,[11.82102259999374],[None],1811.622727599999,1811.6361068999977,1811.6361068999977,1811.6361068999977,1813.4532739999995,3,1.814392600004794,3,1.814392600004794,,,,,,,,Sub39_AB,001,2026-01-19_17h56.12.732,recognitionstage,,2025.1.1,59.9513914098711,2026-01-19 17h58.42.001049 +0530,
,,,9,9,0,8,frames\Vid8_BB_T.png,frames\Vid8_L.png,['l'],1,[7.007443299997249],[None],5,1.2302820999902906,,,,,0,9,9,7,1813.5065652000048,,22,Male,Left Handed,Normal,,,,,,,,,,,,,,,,,,,,,,,,,,,,,,,,,,,,,,,,1813.4921830000094,1813.5065652000048,1813.5065652000048,1813.5065652000048,1813.5065652000048,1813.5065652000048,1813.5065652000048,1820.5220868000033,['l'],1,[7.007443299997249],[None],1820.5234550000023,1820.535841600009,1820.535841600009,1820.535841600009,1821.7695085000014,5,1.2302820999902906,5,1.2302820999902906,,,,,,,,Sub39_AB,001,2026-01-19_17h56.12.732,recognitionstage,,2025.1.1,59.9513914098711,2026-01-19 17h58.42.001049 +0530,
,,,10,10,0,4,frames\Vid4_EM_T.png,frames\Vid4_L.png,['l'],0,[19.571301699994365],[None],5,1.4971292999980506,,,,,0,10,10,3,1821.8227570000017,,22,Male,Left Handed,Normal,,,,,,,,,,,,,,,,,,,,,,,,,,,,,,,,,,,,,,,,1821.8130282000056,1821.8227570000017,1821.8227570000017,1821.8227570000017,1821.8227570000017,1821.8227570000017,1821.8227570000017,1841.405211899997,['l'],0,[19.571301699994365],[None],1841.406618699999,1841.4344087000063,1841.4344087000063,1841.4344087000063,1842.9204943000077,5,1.4971292999980506,5,1.4971292999980506,,,,,,,,Sub39_AB,001,2026-01-19_17h56.12.732,recognitionstage,,2025.1.1,59.9513914098711,2026-01-19 17h58.42.001049 +0530,
,,,11,11,0,11,frames\Vid11_EM_T.png,frames\Vid11_L.png,['r'],1,[5.293184099995415],[None],4,1.3476111000054516,,,,,0,11,11,10,1842.973030100009,,22,Male,Left Handed,Normal,,,,,,,,,,,,,,,,,,,,,,,,,,,,,,,,,,,,,,,,1842.9623385000014,1842.973030100009,1842.973030100009,1842.973030100009,1842.973030100009,1842.973030100009,1842.973030100009,1848.2721220000094,['r'],1,[5.293184099995415],[None],1848.2728623000003,1848.2861933000095,1848.2861933000095,1848.2861933000095,1849.6363602000056,4,1.3476111000054516,4,1.3476111000054516,,,,,,,,Sub39_AB,001,2026-01-19_17h56.12.732,recognitionstage,,2025.1.1,59.9513914098711,2026-01-19 17h58.42.001049 +0530,
,,,12,12,0,23,frames\Vid23_EM_T.png,frames\Vid23_L.png,['l'],1,[16.482245199993486],[None],1,1.998545299997204,,,,,0,12,12,22,1849.6718710999994,,22,Male,Left Handed,Normal,,,,,,,,,,,,,,,,,,,,,,,,,,,,,,,,,,,,,,,,1849.650623900001,1849.6718710999994,1849.6718710999994,1849.6718710999994,1849.6718710999994,1849.6718710999994,1849.6718710999994,1866.1548119000072,['l'],1,[16.482245199993486],[None],1866.1557637000078,1866.1691951999965,1866.1691951999965,1866.1691951999965,1868.1696566000028,1,1.998545299997204,1,1.998545299997204,,,,,,,,Sub39_AB,001,2026-01-19_17h56.12.732,recognitionstage,,2025.1.1,59.9513914098711,2026-01-19 17h58.42.001049 +0530,
,,,13,13,0,17,frames\Vid17_BB_T.png,frames\Vid17_L.png,['r'],1,[8.295120900002075],[None],3,1.3140754000050947,,,,,0,13,13,16,1868.2030699000024,,22,Male,Left Handed,Normal,,,,,,,,,,,,,,,,,,,,,,,,,,,,,,,,,,,,,,,,1868.1938879000081,1868.2030699000024,1868.2030699000024,1868.2030699000024,1868.2030699000024,1868.2030699000024,1868.2030699000024,1876.5051846999995,['r'],1,[8.295120900002075],[None],1876.5066284000059,1876.5196952999977,1876.5196952999977,1876.5196952999977,1877.8368439000042,3,1.3140754000050947,3,1.3140754000050947,,,,,,,,Sub39_AB,001,2026-01-19_17h56.12.732,recognitionstage,,2025.1.1,59.9513914098711,2026-01-19 17h58.42.001049 +0530,
,,,14,14,0,5,frames\Vid5_EM_T.png,frames\Vid5_L.png,['r'],1,[13.13029529999767],[None],2,0.7478979000006802,,,,,0,14,14,4,1877.8879707000015,,22,Male,Left Handed,Normal,,,,,,,,,,,,,,,,,,,,,,,,,,,,,,,,,,,,,,,,1877.8662552000023,1877.8879707000015,1877.8879707000015,1877.8879707000015,1877.8879707000015,1877.8879707000015,1877.8879707000015,1891.021732299996,['r'],1,[13.13029529999767],[None],1891.022933100001,1891.036398199998,1891.036398199998,1891.036398199998,1891.786921699997,2,0.7478979000006802,2,0.7478979000006802,,,,,,,,Sub39_AB,001,2026-01-19_17h56.12.732,recognitionstage,,2025.1.1,59.9513914098711,2026-01-19 17h58.42.001049 +0530,
,,,15,15,0,30,frames\Vid30_EM_T.png,frames\Vid30_L.png,['r'],1,[5.699335500001325],[None],5,1.1139235000009649,,,,,0,15,15,29,1891.8069052000064,,22,Male,Left Handed,Normal,,,,,,,,,,,,,,,,,,,,,,,,,,,,,,,,,,,,,,,,1891.796762500002,1891.8069052000064,1891.8069052000064,1891.8069052000064,1891.8069052000064,1891.8069052000064,1891.8069052000064,1897.5222223000019,['r'],1,[5.699335500001325],[None],1897.523350500007,1897.5361526000052,1897.5361526000052,1897.5361526000052,1898.653717299996,5,1.1139235000009649,5,1.1139235000009649,,,,,,,,Sub39_AB,001,2026-01-19_17h56.12.732,recognitionstage,,2025.1.1,59.9513914098711,2026-01-19 17h58.42.001049 +0530,
,,,16,16,0,28,frames\Vid28_EM_T.png,frames\Vid28_L.png,['l'],1,[7.41207679999934],[None],5,1.0814667999948142,,,,,0,16,16,27,1898.6859444000002,,22,Male,Left Handed,Normal,,,,,,,,,,,,,,,,,,,,,,,,,,,,,,,,,,,,,,,,1898.664195999998,1898.6859444000002,1898.6859444000002,1898.6859444000002,1898.6859444000002,1898.6859444000002,1898.6859444000002,1906.10484,['l'],1,[7.41207679999934],[None],1906.1059362000087,1906.1194002999982,1906.1194002999982,1906.1194002999982,1907.2033723000059,5,1.0814667999948142,5,1.0814667999948142,,,,,,,,Sub39_AB,001,2026-01-19_17h56.12.732,recognitionstage,,2025.1.1,59.9513914098711,2026-01-19 17h58.42.001049 +0530,
,,,17,17,0,39,frames\Vid39_BB_T.png,frames\Vid39_L.png,['l'],0,[8.101286999997683],[None],5,1.1800256000133231,,,,,0,17,17,38,1907.2210207000026,,22,Male,Left Handed,Normal,,,,,,,,,,,,,,,,,,,,,,,,,,,,,,,,,,,,,,,,1907.210523200003,1907.2210207000026,1907.2210207000026,1907.2210207000026,1907.2210207000026,1907.2210207000026,1907.2210207000026,1915.3390763000061,['l'],0,[8.101286999997683],[None],1915.339959799996,1915.3526902000012,1915.3526902000012,1915.3526902000012,1916.537604600002,5,1.1800256000133231,5,1.1800256000133231,,,,,,,,Sub39_AB,001,2026-01-19_17h56.12.732,recognitionstage,,2025.1.1,59.9513914098711,2026-01-19 17h58.42.001049 +0530,
,,,18,18,0,34,frames\Vid34_BB_T.png,frames\Vid34_L.png,['l'],1,[8.28882970000268],[None],5,0.7829644000012195,,,,,0,18,18,33,1916.56912,,22,Male,Left Handed,Normal,,,,,,,,,,,,,,,,,,,,,,,,,,,,,,,,,,,,,,,,1916.5477296000026,1916.56912,1916.56912,1916.56912,1916.56912,1916.56912,1916.56912,1924.8708348000073,['l'],1,[8.28882970000268],[None],1924.8716883000016,1924.8862139999983,1924.8862139999983,1924.8862139999983,1925.6702290999965,5,0.7829644000012195,5,0.7829644000012195,,,,,,,,Sub39_AB,001,2026-01-19_17h56.12.732,recognitionstage,,2025.1.1,59.9513914098711,2026-01-19 17h58.42.001049 +0530,
,,,19,19,0,33,frames\Vid33_BB_T.png,frames\Vid33_L.png,['r'],1,[9.203186099999584],[None],5,1.0635732000082498,,,,,0,19,19,32,1925.7028797000094,,22,Male,Left Handed,Normal,,,,,,,,,,,,,,,,,,,,,,,,,,,,,,,,,,,,,,,,1925.681904099998,1925.7028797000094,1925.7028797000094,1925.7028797000094,1925.7028797000094,1925.7028797000094,1925.7028797000094,1934.9225585999957,['r'],1,[9.203186099999584],[None],1934.9237485000049,1934.9358522999974,1934.9358522999974,1934.9358522999974,1936.003058400005,5,1.0635732000082498,5,1.0635732000082498,,,,,,,,Sub39_AB,001,2026-01-19_17h56.12.732,recognitionstage,,2025.1.1,59.9513914098711,2026-01-19 17h58.42.001049 +0530,
,,,20,20,0,40,frames\Vid40_EM_T.png,frames\Vid40_L.png,['r'],1,[13.148974299998372],[None],3,2.2147799999947893,,,,,0,20,20,39,1936.0212047000095,,22,Male,Left Handed,Normal,,,,,,,,,,,,,,,,,,,,,,,,,,,,,,,,,,,,,,,,1936.0114949999988,1936.0212047000095,1936.0212047000095,1936.0212047000095,1936.0212047000095,1936.0212047000095,1936.0212047000095,1949.1719964000076,['r'],1,[13.148974299998372],[None],1949.1730681000045,1949.1862575999985,1949.1862575999985,1949.1862575999985,1951.4033384000068,3,2.2147799999947893,3,2.2147799999947893,,,,,,,,Sub39_AB,001,2026-01-19_17h56.12.732,recognitionstage,,2025.1.1,59.9513914098711,2026-01-19 17h58.42.001049 +0530,
,,,21,21,0,37,frames\Vid37_BB_T.png,frames\Vid37_L.png,['l'],1,[6.7182288999902084],[None],4,1.4799719999864465,,,,,0,21,21,36,1951.435882500009,,22,Male,Left Handed,Normal,,,,,,,,,,,,,,,,,,,,,,,,,,,,,,,,,,,,,,,,1951.414893299996,1951.435882500009,1951.435882500009,1951.435882500009,1951.435882500009,1951.435882500009,1951.435882500009,1958.1550960000022,['l'],1,[6.7182288999902084],[None],1958.1567144,1958.1691311000031,1958.1691311000031,1958.1691311000031,1959.653633599999,4,1.4799719999864465,4,1.4799719999864465,,,,,,,,Sub39_AB,001,2026-01-19_17h56.12.732,recognitionstage,,2025.1.1,59.9513914098711,2026-01-19 17h58.42.001049 +0530,
,,,22,22,0,36,frames\Vid36_BB_T.png,frames\Vid36_L.png,['l'],1,[12.659966899998835],[None],4,1.0520526000036625,,,,,0,22,22,35,1959.6862553999963,,22,Male,Left Handed,Normal,,,,,,,,,,,,,,,,,,,,,,,,,,,,,,,,,,,,,,,,1959.6689044000086,1959.6862553999963,1959.6862553999963,1959.6862553999963,1959.6862553999963,1959.6862553999963,1959.6862553999963,1972.3545217000064,['l'],1,[12.659966899998835],[None],1972.3552196000091,1972.3695961000049,1972.3695961000049,1972.3695961000049,1973.4198390000092,4,1.0520526000036625,4,1.0520526000036625,,,,,,,,Sub39_AB,001,2026-01-19_17h56.12.732,recognitionstage,,2025.1.1,59.9513914098711,2026-01-19 17h58.42.001049 +0530,
,,,23,23,0,35,frames\Vid35_EM_T.png,frames\Vid35_L.png,['r'],1,[10.86003910000727],[None],2,0.8147100000060163,,,,,0,23,23,34,1973.4381544000062,,22,Male,Left Handed,Normal,,,,,,,,,,,,,,,,,,,,,,,,,,,,,,,,,,,,,,,,1973.4283243999962,1973.4381544000062,1973.4381544000062,1973.4381544000062,1973.4381544000062,1973.4381544000062,1973.4381544000062,1984.304520500009,['r'],1,[10.86003910000727],[None],1984.3052868000086,1984.3195762999967,1984.3195762999967,1984.3195762999967,1985.1374989000033,2,0.8147100000060163,2,0.8147100000060163,,,,,,,,Sub39_AB,001,2026-01-19_17h56.12.732,recognitionstage,,2025.1.1,59.9513914098711,2026-01-19 17h58.42.001049 +0530,
,,,24,24,0,10,frames\Vid10_BB_T.png,frames\Vid10_L.png,['r'],1,[10.686907799987239],[None],3,1.0322340999991866,,,,,0,24,24,9,1985.203110100003,,22,Male,Left Handed,Normal,,,,,,,,,,,,,,,,,,,,,,,,,,,,,,,,,,,,,,,,1985.1822821000096,1985.203110100003,1985.203110100003,1985.203110100003,1985.203110100003,1985.203110100003,1985.203110100003,1995.9042935000034,['r'],1,[10.686907799987239],[None],1995.905183499999,1995.9197549000091,1995.9197549000091,1995.9197549000091,1996.9537287999992,3,1.0322340999991866,3,1.0322340999991866,,,,,,,,Sub39_AB,001,2026-01-19_17h56.12.732,recognitionstage,,2025.1.1,59.9513914098711,2026-01-19 17h58.42.001049 +0530,
,,,25,25,0,7,frames\Vid7_EM_T.png,frames\Vid7_L.png,['r'],1,[7.818825800000923],[None],3,1.1651069000072312,,,,,0,25,25,6,1997.0231379000033,,22,Male,Left Handed,Normal,,,,,,,,,,,,,,,,,,,,,,,,,,,,,,,,,,,,,,,,1996.9980728000082,1997.0231379000033,1997.0231379000033,1997.0231379000033,1997.0231379000033,1997.0231379000033,1997.0231379000033,2004.8541873000067,['r'],1,[7.818825800000923],[None],2004.8550610000093,2004.869681600001,2004.869681600001,2004.869681600001,2006.0369781000045,3,1.1651069000072312,3,1.1651069000072312,,,,,,,,Sub39_AB,001,2026-01-19_17h56.12.732,recognitionstage,,2025.1.1,59.9513914098711,2026-01-19 17h58.42.001049 +0530,
,,,26,26,0,22,frames\Vid22_EM_T.png,frames\Vid22_L.png,['r'],1,[9.162229199995636],[None],5,1.5308027999999467,,,,,0,26,26,21,2006.0718990000023,,22,Male,Left Handed,Normal,,,,,,,,,,,,,,,,,,,,,,,,,,,,,,,,,,,,,,,,2006.0514172999974,2006.0718990000023,2006.0718990000023,2006.0718990000023,2006.0718990000023,2006.0718990000023,2006.0718990000023,2015.2387866000063,['r'],1,[9.162229199995636],[None],2015.2399050999957,2015.2678263999987,2015.2678263999987,2015.2678263999987,2016.78716610001,5,1.5308027999999467,5,1.5308027999999467,,,,,,,,Sub39_AB,001,2026-01-19_17h56.12.732,recognitionstage,,2025.1.1,59.9513914098711,2026-01-19 17h58.42.001049 +0530,
,,,27,27,0,1,frames\Vid1_EM_T.png,frames\Vid1_L.png,['r'],1,[7.020538100012345],[None],5,1.4481617999990704,,,,,0,27,27,0,2016.8534999999974,,22,Male,Left Handed,Normal,,,,,,,,,,,,,,,,,,,,,,,,,,,,,,,,,,,,,,,,2016.8332967000024,2016.8534999999974,2016.8534999999974,2016.8534999999974,2016.8534999999974,2016.8534999999974,2016.8534999999974,2023.8880274999974,['r'],1,[7.020538100012345],[None],2023.8891174000019,2023.903143100004,2023.903143100004,2023.903143100004,2025.353677799998,5,1.4481617999990704,5,1.4481617999990704,,,,,,,,Sub39_AB,001,2026-01-19_17h56.12.732,recognitionstage,,2025.1.1,59.9513914098711,2026-01-19 17h58.42.001049 +0530,
,,,28,28,0,16,frames\Vid16_EM_T.png,frames\Vid16_L.png,['r'],1,[3.619524299996556],[None],5,0.9984958999993978,,,,,0,28,28,15,2025.406572699998,,22,Male,Left Handed,Normal,,,,,,,,,,,,,,,,,,,,,,,,,,,,,,,,,,,,,,,,2025.3935460000066,2025.406572699998,2025.406572699998,2025.406572699998,2025.406572699998,2025.406572699998,2025.406572699998,2029.0376075000095,['r'],1,[3.619524299996556],[None],2029.038461300006,2029.0532780000067,2029.0532780000067,2029.0532780000067,2030.053901899999,5,0.9984958999993978,5,0.9984958999993978,,,,,,,,Sub39_AB,001,2026-01-19_17h56.12.732,recognitionstage,,2025.1.1,59.9513914098711,2026-01-19 17h58.42.001049 +0530,
,,,29,29,0,18,frames\Vid18_EM_T.png,frames\Vid18_L.png,['l'],1,[17.377556699997513],[None],2,1.0983357999939471,,,,,0,29,29,17,2030.088650699996,,22,Male,Left Handed,Normal,,,,,,,,,,,,,,,,,,,,,,,,,,,,,,,,,,,,,,,,2030.0669175000075,2030.088650699996,2030.088650699996,2030.088650699996,2030.088650699996,2030.088650699996,2030.088650699996,2047.4712616000033,['l'],1,[17.377556699997513],[None],2047.4720749999979,2047.485857599997,2047.485857599997,2047.485857599997,2048.5866336000036,2,1.0983357999939471,2,1.0983357999939471,,,,,,,,Sub39_AB,001,2026-01-19_17h56.12.732,recognitionstage,,2025.1.1,59.9513914098711,2026-01-19 17h58.42.001049 +0530,
,,,30,30,0,19,frames\Vid19_BB_T.png,frames\Vid19_L.png,['l'],0,[13.487014800004545],[None],2,1.8307097999932012,,,,,0,30,30,18,2048.619547800001,,22,Male,Left Handed,Normal,,,,,,,,,,,,,,,,,,,,,,,,,,,,,,,,,,,,,,,,2048.599881000002,2048.619547800001,2048.619547800001,2048.619547800001,2048.619547800001,2048.619547800001,2048.619547800001,2062.1216748000006,['l'],0,[13.487014800004545],[None],2062.1229259999964,2062.1509796000028,2062.1509796000028,2062.1509796000028,2063.970038600004,2,1.8307097999932012,2,1.8307097999932012,,,,,,,,Sub39_AB,001,2026-01-19_17h56.12.732,recognitionstage,,2025.1.1,59.9513914098711,2026-01-19 17h58.42.001049 +0530,
,,,31,31,0,2,frames\Vid2_BB_T.png,frames\Vid2_L.png,['l'],1,[12.06980029999977],[None],1,1.0985012999881292,,,,,0,31,31,1,2064.0202586000087,,22,Male,Left Handed,Normal,,,,,,,,,,,,,,,,,,,,,,,,,,,,,,,,,,,,,,,,2064.0086922000046,2064.0202586000087,2064.0202586000087,2064.0202586000087,2064.0202586000087,2064.0202586000087,2064.0202586000087,2076.1043957000074,['l'],1,[12.06980029999977],[None],2076.105191099996,2076.1197893000062,2076.1197893000062,2076.1197893000062,2077.220000900008,1,1.0985012999881292,1,1.0985012999881292,,,,,,,,Sub39_AB,001,2026-01-19_17h56.12.732,recognitionstage,,2025.1.1,59.9513914098711,2026-01-19 17h58.42.001049 +0530,
,,,32,32,0,3,frames\Vid3_BB_T.png,frames\Vid3_L.png,['l'],1,[5.7932051999960095],[None],5,1.0161426999984542,,,,,0,32,32,2,2077.2730103000067,,22,Male,Left Handed,Normal,,,,,,,,,,,,,,,,,,,,,,,,,,,,,,,,,,,,,,,,2077.2615726000076,2077.2730103000067,2077.2730103000067,2077.2730103000067,2077.2730103000067,2077.2730103000067,2077.2730103000067,2083.0708938000025,['l'],1,[5.7932051999960095],[None],2083.0716795000044,2083.0861361999996,2083.0861361999996,2083.0861361999996,2084.1034846999974,5,1.0161426999984542,5,1.0161426999984542,,,,,,,,Sub39_AB,001,2026-01-19_17h56.12.732,recognitionstage,,2025.1.1,59.9513914098711,2026-01-19 17h58.42.001049 +0530,
,,,33,33,0,24,frames\Vid24_BB_T.png,frames\Vid24_L.png,['r'],1,[7.9116722000035224],[None],5,1.5981710999913048,,,,,0,33,33,23,2084.1384262000065,,22,Male,Left Handed,Normal,,,,,,,,,,,,,,,,,,,,,,,,,,,,,,,,,,,,,,,,2084.1184490000014,2084.1384262000065,2084.1384262000065,2084.1384262000065,2084.1384262000065,2084.1384262000065,2084.1384262000065,2092.0551941000012,['r'],1,[7.9116722000035224],[None],2092.0561157000047,2092.069283500008,2092.069283500008,2092.069283500008,2093.6701103000087,5,1.5981710999913048,5,1.5981710999913048,,,,,,,,Sub39_AB,001,2026-01-19_17h56.12.732,recognitionstage,,2025.1.1,59.9513914098711,2026-01-19 17h58.42.001049 +0530,
,,,34,34,0,32,frames\Vid32_EM_T.png,frames\Vid32_L.png,['l'],1,[3.563731500005815],[None],5,0.9128660999995191,,,,,0,34,34,31,2093.7026044000086,,22,Male,Left Handed,Normal,,,,,,,,,,,,,,,,,,,,,,,,,,,,,,,,,,,,,,,,2093.680699400007,2093.7026044000086,2093.7026044000086,2093.7026044000086,2093.7026044000086,2093.7026044000086,2093.7026044000086,2097.2728983999987,['l'],1,[3.563731500005815],[None],2097.2744033000054,2097.286158200004,2097.286158200004,2097.286158200004,2098.2034138000017,5,0.9128660999995191,5,0.9128660999995191,,,,,,,,Sub39_AB,001,2026-01-19_17h56.12.732,recognitionstage,,2025.1.1,59.9513914098711,2026-01-19 17h58.42.001049 +0530,
,,,35,35,0,20,frames\Vid20_EM_T.png,frames\Vid20_L.png,['l'],1,[6.276528599992162],[None],3,1.1317284999968251,,,,,0,35,35,19,2098.221571000002,,22,Male,Left Handed,Normal,,,,,,,,,,,,,,,,,,,,,,,,,,,,,,,,,,,,,,,,2098.2103476000048,2098.221571000002,2098.221571000002,2098.221571000002,2098.221571000002,2098.221571000002,2098.221571000002,2104.5043771000055,['l'],1,[6.276528599992162],[None],2104.505355100002,2104.519527299999,2104.519527299999,2104.519527299999,2105.6540130000067,3,1.1317284999968251,3,1.1317284999968251,,,,,,,,Sub39_AB,001,2026-01-19_17h56.12.732,recognitionstage,,2025.1.1,59.9513914098711,2026-01-19 17h58.42.001049 +0530,
,,,36,36,0,38,frames\Vid38_EM_T.png,frames\Vid38_L.png,['l'],1,[11.427490900008706],[None],2,1.149112499988405,,,,,0,36,36,37,2105.670809300005,,22,Male,Left Handed,Normal,,,,,,,,,,,,,,,,,,,,,,,,,,,,,,,,,,,,,,,,2105.663868100004,2105.670809300005,2105.670809300005,2105.670809300005,2105.670809300005,2105.670809300005,2105.670809300005,2117.1041608000087,['l'],1,[11.427490900008706],[None],2117.1050191999966,2117.1198863000027,2117.1198863000027,2117.1198863000027,2118.269958100005,2,1.149112499988405,2,1.149112499988405,,,,,,,,Sub39_AB,001,2026-01-19_17h56.12.732,recognitionstage,,2025.1.1,59.9513914098711,2026-01-19 17h58.42.001049 +0530,
,,,37,37,0,25,frames\Vid25_BB_T.png,frames\Vid25_L.png,['l'],1,[6.697910700007924],[None],3,0.998206799995387,,,,,0,37,37,24,2118.288207500009,,22,Male,Left Handed,Normal,,,,,,,,,,,,,,,,,,,,,,,,,,,,,,,,,,,,,,,,2118.2803803999996,2118.288207500009,2118.288207500009,2118.288207500009,2118.288207500009,2118.288207500009,2118.288207500009,2124.988863999999,['l'],1,[6.697910700007924],[None],2124.9897197999962,2125.002525200005,2125.002525200005,2125.002525200005,2126.003353699998,3,0.998206799995387,3,0.998206799995387,,,,,,,,Sub39_AB,001,2026-01-19_17h56.12.732,recognitionstage,,2025.1.1,59.9513914098711,2026-01-19 17h58.42.001049 +0530,
,,,38,38,0,31,frames\Vid31_EM_T.png,frames\Vid31_L.png,['r'],1,[3.140473199993721],[None],5,1.098063400000683,,,,,0,38,38,30,2126.021578800006,,22,Male,Left Handed,Normal,,,,,,,,,,,,,,,,,,,,,,,,,,,,,,,,,,,,,,,,2126.0124908,2126.021578800006,2126.021578800006,2126.021578800006,2126.021578800006,2126.021578800006,2126.021578800006,2129.171510400003,['r'],1,[3.140473199993721],[None],2129.1727532000077,2129.186183900005,2129.186183900005,2129.186183900005,2130.2870844999998,5,1.098063400000683,5,1.098063400000683,,,,,,,,Sub39_AB,001,2026-01-19_17h56.12.732,recognitionstage,,2025.1.1,59.9513914098711,2026-01-19 17h58.42.001049 +0530,
,,,39,39,0,26,frames\Vid26_EM_T.png,frames\Vid26_L.png,['r'],1,[3.0748081000056118],[None],5,1.1305378999968525,,,,,0,39,39,25,2130.319405500006,,22,Male,Left Handed,Normal,,,,,,,,,,,,,,,,,,,,,,,,,,,,,,,,,,,,,,,,2130.3013879000064,2130.319405500006,2130.319405500006,2130.319405500006,2130.319405500006,2130.319405500006,2130.319405500006,2133.405739900001,['r'],1,[3.0748081000056118],[None],2133.406835700007,2133.4193271999975,2133.4193271999975,2133.4193271999975,2134.5537159000087,5,1.1305378999968525,5,1.1305378999968525,,,,,,,,Sub39_AB,001,2026-01-19_17h56.12.732,recognitionstage,,2025.1.1,59.9513914098711,2026-01-19 17h58.42.001049 +0530,
,,,,,,,,,,,,,,,,,,,,,,,,,22,Male,Left Handed,Normal,,,,,,,,,,,,,,,,,,,,,,,,,,,,,,,,,,,,,,,,,,,,,,,,,,,,,,,,,,,,,2134.553838599997,2134.570210500009,2134.570210500009,2136.8048634000006,space,2.2239772000029916,None,Sub39_AB,001,2026-01-19_17h56.12.732,recognitionstage,,2025.1.1,59.9513914098711,2026-01-19 17h58.42.001049 +0530,
