path,duration,is_repeat,thisN,thisTrialN,thisRepN,movie_id,target_img,lure_img,resp.keys,resp.corr,resp.rt,resp.duration,conf_radio.response,conf_radio.rt,movie.thisRepN,movie.thisTrialN,movie.thisN,movie.thisIndex,recogloop.thisRepN,recogloop.thisTrialN,recogloop.thisN,recogloop.thisIndex,thisRow.t,notes,age,gender,handedness,vision,caffeine_2h,alcohol_smoke_12h,demographics.started,demographics.stopped,Instructions.started,text1.started,key_resp.started,Instructions.stopped,key_resp.keys,key_resp.rt,key_resp.duration,instruction_2.started,text2.started,key_resp_2.started,instruction_2.stopped,key_resp_2.keys,key_resp_2.rt,key_resp_2.duration,Videos.started,movie_2.started,vigilance_resp.started,movie_2.stopped,Videos.stopped,movie.vigilance_resp.keys,vigilance_pressed,vigilance_correct,ISI.started,text.started,ISI.stopped,text.stopped,movie.vigilance_resp.rt,movie.vigilance_resp.duration,recognition.started,text_4.started,key_resp_3.started,recognition.stopped,key_resp_3.keys,key_resp_3.rt,key_resp_3.duration,recognition_task.started,leftimage.started,rightimage.started,resp.started,frames_question.started,right_label.started,left_label.started,recognition_task.stopped,recogloop.resp.keys,recogloop.resp.corr,recogloop.resp.rt,recogloop.resp.duration,confidence.started,conf_text.started,conf_radio.started,conf_label.started,confidence.stopped,recogloop.conf_radio.response,recogloop.conf_radio.rt,confidence,confidence_rt,thank_you.started,text_6.started,key_resp_4.started,thank_you.stopped,key_resp_4.keys,participant,session,date,expName,expVersion,psychopyVersion,frameRate,expStart,...103
,,,,,,,,,,,,,,,,,,,,,,,,,20,Female,Right handed,Corrected to normal,Caffeine consumed in last 2 hours?,Alcohol or smoking in last 12 hours?,0.011271199997281656,0.015072499983943999,,,,,,,,,,,,,,,,,,,,,,,,,,,,,,,,,,,,,,,,,,,,,,,,,,,,,,,,,,,,,,sub42_NB,001,2026-01-20_12h05.27.677,recognitionstage,,2025.1.1,60.18603502850058,2026-01-20 12h07.13.312625 +0530,
,,,,,,,,,,,,,,,,,,,,,,,,,20,Female,Right handed,Corrected to normal,,,,,0.015095399983692914,0.030100600008154288,0.030100600008154288,6.249341499991715,space,6.213611699989997,None,,,,,,,,,,,,,,,,,,,,,,,,,,,,,,,,,,,,,,,,,,,,,,,,,,,,,,,sub42_NB,001,2026-01-20_12h05.27.677,recognitionstage,,2025.1.1,60.18603502850058,2026-01-20 12h07.13.312625 +0530,
,,,,,,,,,,,,,,,,,,,,,,,,,20,Female,Right handed,Corrected to normal,,,,,,,,,,,,6.249412400007714,6.26593180000782,6.26593180000782,10.799139100010507,space,4.5296437999932095,None,,,,,,,,,,,,,,,,,,,,,,,,,,,,,,,,,,,,,,,,,,,,,,,,sub42_NB,001,2026-01-20_12h05.27.677,recognitionstage,,2025.1.1,60.18603502850058,2026-01-20 12h07.13.312625 +0530,
Trimmed_videos/natural_35.mp4,44,0,44,44,0,,,,,,,,,,0,44,44,38,,,,,1490.079539600003,,20,Female,Right handed,Corrected to normal,,,,,,,,,,,,,,,,,,,1490.0261310999922,1490.079539600003,1490.079539600003,1535.079240799998,1534.930743600009,None,0,1,1535.0657855999889,1535.079240799998,1537.564731499995,1537.5806044999918,1.9101330999983475,None,1537.5648089000024,1537.5806044999918,1537.5806044999918,1567.9981909999915,space,30.406899699999485,None,,,,,,,,,,,,,,,,,,,,,,,,,,,sub42_NB,001,2026-01-20_12h05.27.677,recognitionstage,,2025.1.1,60.18603502850058,2026-01-20 12h07.13.312625 +0530,
,,,0,0,0,8,frames\Vid8_BB_T.png,frames\Vid8_L.png,['r'],0,[12.485401199985063],[None],4,13.045860899990657,,,,,0,0,0,7,1568.0622007999918,,20,Female,Right handed,Corrected to normal,,,,,,,,,,,,,,,,,,,,,,,,,,,,,,,,,,,,,,,,1568.0442888000107,1568.0622007999918,1568.0622007999918,1568.0622007999918,1568.0622007999918,1568.0622007999918,1568.0622007999918,1580.5504662999883,['r'],0,[12.485401199985063],[None],1580.5518875999842,1580.5779593999905,1580.5779593999905,1580.5779593999905,1593.6140053000126,4,13.045860899990657,4,13.045860899990657,,,,,,sub42_NB,001,2026-01-20_12h05.27.677,recognitionstage,,2025.1.1,60.18603502850058,2026-01-20 12h07.13.312625 +0530,
,,,1,1,0,18,frames\Vid18_EM_T.png,frames\Vid18_L.png,['r'],1,[16.229367099993397],[None],5,2.4490915999922436,,,,,0,1,1,17,1593.662159600004,,20,Female,Right handed,Corrected to normal,,,,,,,,,,,,,,,,,,,,,,,,,,,,,,,,,,,,,,,,1593.6479928999906,1593.662159600004,1593.662159600004,1593.662159600004,1593.662159600004,1593.662159600004,1593.662159600004,1609.8984332999971,['r'],1,[16.229367099993397],[None],1609.899385800003,1609.913423799997,1609.913423799997,1609.913423799997,1612.3638893000025,5,2.4490915999922436,5,2.4490915999922436,,,,,,sub42_NB,001,2026-01-20_12h05.27.677,recognitionstage,,2025.1.1,60.18603502850058,2026-01-20 12h07.13.312625 +0530,
,,,2,2,0,4,frames\Vid4_EM_T.png,frames\Vid4_L.png,['r'],1,[10.0690168000001],[None],5,1.5149073000065982,,,,,0,2,2,3,1612.4305678000092,,20,Female,Right handed,Corrected to normal,,,,,,,,,,,,,,,,,,,,,,,,,,,,,,,,,,,,,,,,1612.4079358000017,1612.4305678000092,1612.4305678000092,1612.4305678000092,1612.4305678000092,1612.4305678000092,1612.4305678000092,1622.5158859000076,['r'],1,[10.0690168000001],[None],1622.5169415999844,1622.5299796999898,1622.5299796999898,1622.5299796999898,1624.04782040001,5,1.5149073000065982,5,1.5149073000065982,,,,,,sub42_NB,001,2026-01-20_12h05.27.677,recognitionstage,,2025.1.1,60.18603502850058,2026-01-20 12h07.13.312625 +0530,
,,,3,3,0,7,frames\Vid7_EM_T.png,frames\Vid7_L.png,['r'],1,[3.3026801999949384],[None],5,0.8655342999845743,,,,,0,3,3,6,1624.116633800004,,20,Female,Right handed,Corrected to normal,,,,,,,,,,,,,,,,,,,,,,,,,,,,,,,,,,,,,,,,1624.092564199993,1624.116633800004,1624.116633800004,1624.116633800004,1624.116633800004,1624.116633800004,1624.116633800004,1627.4319327999838,['r'],1,[3.3026801999949384],[None],1627.4327781999891,1627.446428700001,1627.446428700001,1627.446428700001,1628.313923699985,5,0.8655342999845743,5,0.8655342999845743,,,,,,sub42_NB,001,2026-01-20_12h05.27.677,recognitionstage,,2025.1.1,60.18603502850058,2026-01-20 12h07.13.312625 +0530,
,,,4,4,0,30,frames\Vid30_EM_T.png,frames\Vid30_L.png,['l'],1,[4.094371599989245],[None],5,1.14909729998908,,,,,0,4,4,29,1628.3490879999881,,20,Female,Right handed,Corrected to normal,,,,,,,,,,,,,,,,,,,,,,,,,,,,,,,,,,,,,,,,1628.326470400003,1628.3490879999881,1628.3490879999881,1628.3490879999881,1628.3490879999881,1628.3490879999881,1628.3490879999881,1632.4480665999872,['l'],1,[4.094371599989245],[None],1632.4489845999924,1632.4643617999973,1632.4643617999973,1632.4643617999973,1633.6138493999897,5,1.14909729998908,5,1.14909729998908,,,,,,sub42_NB,001,2026-01-20_12h05.27.677,recognitionstage,,2025.1.1,60.18603502850058,2026-01-20 12h07.13.312625 +0530,
,,,5,5,0,38,frames\Vid38_EM_T.png,frames\Vid38_L.png,['r'],1,[18.24347110002418],[None],4,0.9822047000052407,,,,,0,5,5,37,1633.6320322999964,,20,Female,Right handed,Corrected to normal,,,,,,,,,,,,,,,,,,,,,,,,,,,,,,,,,,,,,,,,1633.622544999991,1633.6320322999964,1633.6320322999964,1633.6320322999964,1633.6320322999964,1633.6320322999964,1633.6320322999964,1651.8814444000018,['r'],1,[18.24347110002418],[None],1651.8823352000036,1651.8966360999912,1651.8966360999912,1651.8966360999912,1652.8803554000042,4,0.9822047000052407,4,0.9822047000052407,,,,,,sub42_NB,001,2026-01-20_12h05.27.677,recognitionstage,,2025.1.1,60.18603502850058,2026-01-20 12h07.13.312625 +0530,
,,,6,6,0,15,frames\Vid15_BB_T.png,frames\Vid15_L.png,['l'],1,[4.655385599995498],[None],5,1.4659970000211615,,,,,0,6,6,14,1652.9479979999887,,20,Female,Right handed,Corrected to normal,,,,,,,,,,,,,,,,,,,,,,,,,,,,,,,,,,,,,,,,1652.9293918999902,1652.9479979999887,1652.9479979999887,1652.9479979999887,1652.9479979999887,1652.9479979999887,1652.9479979999887,1657.614031300007,['l'],1,[4.655385599995498],[None],1657.6146428000065,1657.630032199988,1657.630032199988,1657.630032199988,1659.0975248999894,5,1.4659970000211615,5,1.4659970000211615,,,,,,sub42_NB,001,2026-01-20_12h05.27.677,recognitionstage,,2025.1.1,60.18603502850058,2026-01-20 12h07.13.312625 +0530,
,,,7,7,0,37,frames\Vid37_BB_T.png,frames\Vid37_L.png,['r'],1,[3.8787093999853823],[None],5,1.5982478999940213,,,,,0,7,7,36,1659.1327376000118,,20,Female,Right handed,Corrected to normal,,,,,,,,,,,,,,,,,,,,,,,,,,,,,,,,,,,,,,,,1659.1101923999959,1659.1327376000118,1659.1327376000118,1659.1327376000118,1659.1327376000118,1659.1327376000118,1659.1327376000118,1663.0161863999965,['r'],1,[3.8787093999853823],[None],1663.0171853000065,1663.029712699994,1663.029712699994,1663.029712699994,1664.6302048999933,5,1.5982478999940213,5,1.5982478999940213,,,,,,sub42_NB,001,2026-01-20_12h05.27.677,recognitionstage,,2025.1.1,60.18603502850058,2026-01-20 12h07.13.312625 +0530,
,,,8,8,0,2,frames\Vid2_BB_T.png,frames\Vid2_L.png,['l'],1,[4.715226300002541],[None],5,1.4138907000015024,,,,,0,8,8,1,1664.680400000012,,20,Female,Right handed,Corrected to normal,,,,,,,,,,,,,,,,,,,,,,,,,,,,,,,,,,,,,,,,1664.6668557999947,1664.680400000012,1664.680400000012,1664.680400000012,1664.680400000012,1664.680400000012,1664.680400000012,1669.3991534000088,['l'],1,[4.715226300002541],[None],1669.4000521000125,1669.4131272000086,1669.4131272000086,1669.4131272000086,1670.8306254000054,5,1.4138907000015024,5,1.4138907000015024,,,,,,sub42_NB,001,2026-01-20_12h05.27.677,recognitionstage,,2025.1.1,60.18603502850058,2026-01-20 12h07.13.312625 +0530,
,,,9,9,0,26,frames\Vid26_EM_T.png,frames\Vid26_L.png,['r'],1,[10.200765599991428],[None],4,0.9149049000116065,,,,,0,9,9,25,1670.8666124999872,,20,Female,Right handed,Corrected to normal,,,,,,,,,,,,,,,,,,,,,,,,,,,,,,,,,,,,,,,,1670.844048800005,1670.8666124999872,1670.8666124999872,1670.8666124999872,1670.8666124999872,1670.8666124999872,1670.8666124999872,1681.0822568000003,['r'],1,[10.200765599991428],[None],1681.083185800002,1681.0968401999853,1681.0968401999853,1681.0968401999853,1682.0144584999944,4,0.9149049000116065,4,0.9149049000116065,,,,,,sub42_NB,001,2026-01-20_12h05.27.677,recognitionstage,,2025.1.1,60.18603502850058,2026-01-20 12h07.13.312625 +0530,
,,,10,10,0,11,frames\Vid11_EM_T.png,frames\Vid11_L.png,['r'],1,[4.787485500011826],[None],5,1.0976370999997016,,,,,0,10,10,10,1682.0640076999844,,20,Female,Right handed,Corrected to normal,,,,,,,,,,,,,,,,,,,,,,,,,,,,,,,,,,,,,,,,1682.0566239999898,1682.0640076999844,1682.0640076999844,1682.0640076999844,1682.0640076999844,1682.0640076999844,1682.0640076999844,1686.8660911000043,['r'],1,[4.787485500011826],[None],1686.8674702999997,1686.8950462999928,1686.8950462999928,1686.8950462999928,1687.9807397999975,5,1.0976370999997016,5,1.0976370999997016,,,,,,sub42_NB,001,2026-01-20_12h05.27.677,recognitionstage,,2025.1.1,60.18603502850058,2026-01-20 12h07.13.312625 +0530,
,,,11,11,0,16,frames\Vid16_EM_T.png,frames\Vid16_L.png,['r'],1,[12.282340700010536],[None],3,1.2630283000180498,,,,,0,11,11,15,1688.0331220999942,,20,Female,Right handed,Corrected to normal,,,,,,,,,,,,,,,,,,,,,,,,,,,,,,,,,,,,,,,,1688.0198735999875,1688.0331220999942,1688.0331220999942,1688.0331220999942,1688.0331220999942,1688.0331220999942,1688.0331220999942,1700.3165246999997,['r'],1,[12.282340700010536],[None],1700.3175151000032,1700.3295806999959,1700.3295806999959,1700.3295806999959,1701.5975992000022,3,1.2630283000180498,3,1.2630283000180498,,,,,,sub42_NB,001,2026-01-20_12h05.27.677,recognitionstage,,2025.1.1,60.18603502850058,2026-01-20 12h07.13.312625 +0530,
,,,12,12,0,20,frames\Vid20_EM_T.png,frames\Vid20_L.png,['l'],1,[14.370983800006798],[None],4,1.6470411000191234,,,,,0,12,12,19,1701.6325167999894,,20,Female,Right handed,Corrected to normal,,,,,,,,,,,,,,,,,,,,,,,,,,,,,,,,,,,,,,,,1701.6088335000095,1701.6325167999894,1701.6325167999894,1701.6325167999894,1701.6325167999894,1701.6325167999894,1701.6325167999894,1716.0162103000039,['l'],1,[14.370983800006798],[None],1716.0171984999906,1716.0296321999922,1716.0296321999922,1716.0296321999922,1717.6812904000108,4,1.6470411000191234,4,1.6470411000191234,,,,,,sub42_NB,001,2026-01-20_12h05.27.677,recognitionstage,,2025.1.1,60.18603502850058,2026-01-20 12h07.13.312625 +0530,
,,,13,13,0,5,frames\Vid5_EM_T.png,frames\Vid5_L.png,['l'],1,[4.297710400016513],[None],5,1.3642020000261255,,,,,0,13,13,4,1717.7298776000098,,20,Female,Right handed,Corrected to normal,,,,,,,,,,,,,,,,,,,,,,,,,,,,,,,,,,,,,,,,1717.7120727000001,1717.7298776000098,1717.7298776000098,1717.7298776000098,1717.7298776000098,1717.7298776000098,1717.7298776000098,1722.0322304999863,['l'],1,[4.297710400016513],[None],1722.03321590001,1722.046742800012,1722.046742800012,1722.046742800012,1723.4140942000085,5,1.3642020000261255,5,1.3642020000261255,,,,,,sub42_NB,001,2026-01-20_12h05.27.677,recognitionstage,,2025.1.1,60.18603502850058,2026-01-20 12h07.13.312625 +0530,
,,,14,14,0,17,frames\Vid17_BB_T.png,frames\Vid17_L.png,['l'],1,[4.810576099989703],[None],4,1.2643730999843683,,,,,0,14,14,16,1723.44893340001,,20,Female,Right handed,Corrected to normal,,,,,,,,,,,,,,,,,,,,,,,,,,,,,,,,,,,,,,,,1723.4388999000075,1723.44893340001,1723.44893340001,1723.44893340001,1723.44893340001,1723.44893340001,1723.44893340001,1728.2656515999988,['l'],1,[4.810576099989703],[None],1728.2666566999978,1728.2797449000063,1728.2797449000063,1728.2797449000063,1729.5470277999993,4,1.2643730999843683,4,1.2643730999843683,,,,,,sub42_NB,001,2026-01-20_12h05.27.677,recognitionstage,,2025.1.1,60.18603502850058,2026-01-20 12h07.13.312625 +0530,
,,,15,15,0,3,frames\Vid3_BB_T.png,frames\Vid3_L.png,['r'],1,[19.828962299972773],[None],3,1.7146251999947708,,,,,0,15,15,2,1729.5986798999947,,20,Female,Right handed,Corrected to normal,,,,,,,,,,,,,,,,,,,,,,,,,,,,,,,,,,,,,,,,1729.587830400007,1729.5986798999947,1729.5986798999947,1729.5986798999947,1729.5986798999947,1729.5986798999947,1729.5986798999947,1749.4325905999867,['r'],1,[19.828962299972773],[None],1749.4337158999988,1749.446884200006,1749.446884200006,1749.446884200006,1751.163990800007,3,1.7146251999947708,3,1.7146251999947708,,,,,,sub42_NB,001,2026-01-20_12h05.27.677,recognitionstage,,2025.1.1,60.18603502850058,2026-01-20 12h07.13.312625 +0530,
,,,16,16,0,28,frames\Vid28_EM_T.png,frames\Vid28_L.png,['r'],1,[3.9645470999821555],[None],5,1.3975072000175714,,,,,0,16,16,27,1751.1989066000096,,20,Female,Right handed,Corrected to normal,,,,,,,,,,,,,,,,,,,,,,,,,,,,,,,,,,,,,,,,1751.1764772000024,1751.1989066000096,1751.1989066000096,1751.1989066000096,1751.1989066000096,1751.1989066000096,1751.1989066000096,1755.1655453999992,['r'],1,[3.9645470999821555],[None],1755.1666144999908,1755.180237099994,1755.180237099994,1755.180237099994,1756.580928499985,5,1.3975072000175714,5,1.3975072000175714,,,,,,sub42_NB,001,2026-01-20_12h05.27.677,recognitionstage,,2025.1.1,60.18603502850058,2026-01-20 12h07.13.312625 +0530,
,,,17,17,0,9,frames\Vid9_EM_T.png,frames\Vid9_L.png,['r'],1,[3.7652637000137474],[None],4,2.831574699986959,,,,,0,17,17,8,1756.630602899997,,20,Female,Right handed,Corrected to normal,,,,,,,,,,,,,,,,,,,,,,,,,,,,,,,,,,,,,,,,1756.6207775000075,1756.630602899997,1756.630602899997,1756.630602899997,1756.630602899997,1756.630602899997,1756.630602899997,1760.398927000002,['r'],1,[3.7652637000137474],[None],1760.4003047999868,1760.413388099987,1760.413388099987,1760.413388099987,1763.248144799989,4,2.831574699986959,4,2.831574699986959,,,,,,sub42_NB,001,2026-01-20_12h05.27.677,recognitionstage,,2025.1.1,60.18603502850058,2026-01-20 12h07.13.312625 +0530,
,,,18,18,0,39,frames\Vid39_BB_T.png,frames\Vid39_L.png,['r'],1,[4.264410099975066],[None],5,1.4812038999807555,,,,,0,18,18,38,1763.267408099986,,20,Female,Right handed,Corrected to normal,,,,,,,,,,,,,,,,,,,,,,,,,,,,,,,,,,,,,,,,1763.2570382000122,1763.267408099986,1763.267408099986,1763.267408099986,1763.267408099986,1763.267408099986,1763.267408099986,1767.5484871999943,['r'],1,[4.264410099975066],[None],1767.5494454999862,1767.5630612999958,1767.5630612999958,1767.5630612999958,1769.047250500007,5,1.4812038999807555,5,1.4812038999807555,,,,,,sub42_NB,001,2026-01-20_12h05.27.677,recognitionstage,,2025.1.1,60.18603502850058,2026-01-20 12h07.13.312625 +0530,
,,,19,19,0,32,frames\Vid32_EM_T.png,frames\Vid32_L.png,['l'],1,[2.979670599976089],[None],5,1.5818105999787804,,,,,0,19,19,31,1769.07983219999,,20,Female,Right handed,Corrected to normal,,,,,,,,,,,,,,,,,,,,,,,,,,,,,,,,,,,,,,,,1769.0580335000122,1769.07983219999,1769.07983219999,1769.07983219999,1769.07983219999,1769.07983219999,1769.07983219999,1772.0652866000019,['l'],1,[2.979670599976089],[None],1772.0664331000007,1772.0795821000065,1772.0795821000065,1772.0795821000065,1773.664146199997,5,1.5818105999787804,5,1.5818105999787804,,,,,,sub42_NB,001,2026-01-20_12h05.27.677,recognitionstage,,2025.1.1,60.18603502850058,2026-01-20 12h07.13.312625 +0530,
,,,20,20,0,19,frames\Vid19_BB_T.png,frames\Vid19_L.png,['l'],1,[7.906712700001663],[None],4,1.3304402999929152,,,,,0,20,20,18,1773.6967925000063,,20,Female,Right handed,Corrected to normal,,,,,,,,,,,,,,,,,,,,,,,,,,,,,,,,,,,,,,,,1773.6752699000062,1773.6967925000063,1773.6967925000063,1773.6967925000063,1773.6967925000063,1773.6967925000063,1773.6967925000063,1781.6163255999854,['l'],1,[7.906712700001663],[None],1781.6173891999933,1781.6295704999939,1781.6295704999939,1781.6295704999939,1782.964115699986,4,1.3304402999929152,4,1.3304402999929152,,,,,,sub42_NB,001,2026-01-20_12h05.27.677,recognitionstage,,2025.1.1,60.18603502850058,2026-01-20 12h07.13.312625 +0530,
,,,21,21,0,31,frames\Vid31_EM_T.png,frames\Vid31_L.png,['l'],1,[2.717490499984706],[None],5,2.0313539000053424,,,,,0,21,21,30,1782.9818961999845,,20,Female,Right handed,Corrected to normal,,,,,,,,,,,,,,,,,,,,,,,,,,,,,,,,,,,,,,,,1782.9730527999927,1782.9818961999845,1782.9818961999845,1782.9818961999845,1782.9818961999845,1782.9818961999845,1782.9818961999845,1785.7154033000115,['l'],1,[2.717490499984706],[None],1785.7163979999896,1785.7297905999876,1785.7297905999876,1785.7297905999876,1787.7637861999974,5,2.0313539000053424,5,2.0313539000053424,,,,,,sub42_NB,001,2026-01-20_12h05.27.677,recognitionstage,,2025.1.1,60.18603502850058,2026-01-20 12h07.13.312625 +0530,
,,,22,22,0,25,frames\Vid25_BB_T.png,frames\Vid25_L.png,['r'],1,[3.9737207000143826],[None],5,0.7156253000139259,,,,,0,22,22,24,1787.7818211000122,,20,Female,Right handed,Corrected to normal,,,,,,,,,,,,,,,,,,,,,,,,,,,,,,,,,,,,,,,,1787.7741468999884,1787.7818211000122,1787.7818211000122,1787.7818211000122,1787.7818211000122,1787.7818211000122,1787.7818211000122,1791.7652309999976,['r'],1,[3.9737207000143826],[None],1791.7666294999945,1791.7804249000037,1791.7804249000037,1791.7804249000037,1792.497312499996,5,0.7156253000139259,5,0.7156253000139259,,,,,,sub42_NB,001,2026-01-20_12h05.27.677,recognitionstage,,2025.1.1,60.18603502850058,2026-01-20 12h07.13.312625 +0530,
,,,23,23,0,22,frames\Vid22_EM_T.png,frames\Vid22_L.png,['r'],1,[3.185871399997268],[None],5,0.7462284999783151,,,,,0,23,23,21,1792.5297491000092,,20,Female,Right handed,Corrected to normal,,,,,,,,,,,,,,,,,,,,,,,,,,,,,,,,,,,,,,,,1792.5118530000036,1792.5297491000092,1792.5297491000092,1792.5297491000092,1792.5297491000092,1792.5297491000092,1792.5297491000092,1795.716442600009,['r'],1,[3.185871399997268],[None],1795.7176784999901,1795.729610999988,1795.729610999988,1795.729610999988,1796.4813159999903,5,0.7462284999783151,5,0.7462284999783151,,,,,,sub42_NB,001,2026-01-20_12h05.27.677,recognitionstage,,2025.1.1,60.18603502850058,2026-01-20 12h07.13.312625 +0530,
,,,24,24,0,12,frames\Vid12_EM_T.png,frames\Vid12_L.png,['l'],1,[3.56870329999947],[None],5,0.5311507000005804,,,,,0,24,24,11,1796.5474264000077,,20,Female,Right handed,Corrected to normal,,,,,,,,,,,,,,,,,,,,,,,,,,,,,,,,,,,,,,,,1796.5295362999896,1796.5474264000077,1796.5474264000077,1796.5474264000077,1796.5474264000077,1796.5474264000077,1796.5474264000077,1800.1325364999939,['l'],1,[3.56870329999947],[None],1800.133493900008,1800.146313300007,1800.146313300007,1800.146313300007,1800.6807022999856,5,0.5311507000005804,5,0.5311507000005804,,,,,,sub42_NB,001,2026-01-20_12h05.27.677,recognitionstage,,2025.1.1,60.18603502850058,2026-01-20 12h07.13.312625 +0530,
,,,25,25,0,40,frames\Vid40_EM_T.png,frames\Vid40_L.png,['r'],1,[3.0950276000075974],[None],5,0.5173985000001267,,,,,0,25,25,39,1800.7163954999996,,20,Female,Right handed,Corrected to normal,,,,,,,,,,,,,,,,,,,,,,,,,,,,,,,,,,,,,,,,1800.6910871999862,1800.7163954999996,1800.7163954999996,1800.7163954999996,1800.7163954999996,1800.7163954999996,1800.7163954999996,1803.8148131000053,['r'],1,[3.0950276000075974],[None],1803.8156289999897,1803.8308058000111,1803.8308058000111,1803.8308058000111,1804.3472222999844,5,0.5173985000001267,5,0.5173985000001267,,,,,,sub42_NB,001,2026-01-20_12h05.27.677,recognitionstage,,2025.1.1,60.18603502850058,2026-01-20 12h07.13.312625 +0530,
,,,26,26,0,29,frames\Vid29_BB_T.png,frames\Vid29_L.png,['r'],1,[9.192012399988016],[None],3,1.248835499980487,,,,,0,26,26,28,1804.3794789999956,,20,Female,Right handed,Corrected to normal,,,,,,,,,,,,,,,,,,,,,,,,,,,,,,,,,,,,,,,,1804.359075299988,1804.3794789999956,1804.3794789999956,1804.3794789999956,1804.3794789999956,1804.3794789999956,1804.3794789999956,1813.5813920999935,['r'],1,[9.192012399988016],[None],1813.582218800002,1813.596800600004,1813.596800600004,1813.596800600004,1814.847395299992,3,1.248835499980487,3,1.248835499980487,,,,,,sub42_NB,001,2026-01-20_12h05.27.677,recognitionstage,,2025.1.1,60.18603502850058,2026-01-20 12h07.13.312625 +0530,
,,,27,27,0,10,frames\Vid10_BB_T.png,frames\Vid10_L.png,['l'],1,[4.657520300010219],[None],4,1.248343700019177,,,,,0,27,27,9,1814.913944,,20,Female,Right handed,Corrected to normal,,,,,,,,,,,,,,,,,,,,,,,,,,,,,,,,,,,,,,,,1814.8917840000067,1814.913944,1814.913944,1814.913944,1814.913944,1814.913944,1814.913944,1819.5816068999993,['l'],1,[4.657520300010219],[None],1819.5825355999987,1819.596756599989,1819.596756599989,1819.596756599989,1820.846995800006,4,1.248343700019177,4,1.248343700019177,,,,,,sub42_NB,001,2026-01-20_12h05.27.677,recognitionstage,,2025.1.1,60.18603502850058,2026-01-20 12h07.13.312625 +0530,
,,,28,28,0,27,frames\Vid27_BB_T.png,frames\Vid27_L.png,['l'],1,[13.72038959999918],[None],3,1.2815214000002015,,,,,0,28,28,26,1820.8832292000006,,20,Female,Right handed,Corrected to normal,,,,,,,,,,,,,,,,,,,,,,,,,,,,,,,,,,,,,,,,1820.8595815000008,1820.8832292000006,1820.8832292000006,1820.8832292000006,1820.8832292000006,1820.8832292000006,1820.8832292000006,1834.6151000999962,['l'],1,[13.72038959999918],[None],1834.6160855999915,1834.63006950001,1834.63006950001,1834.63006950001,1835.914208800008,3,1.2815214000002015,3,1.2815214000002015,,,,,,sub42_NB,001,2026-01-20_12h05.27.677,recognitionstage,,2025.1.1,60.18603502850058,2026-01-20 12h07.13.312625 +0530,
,,,29,29,0,14,frames\Vid14_BB_T.png,frames\Vid14_L.png,['l'],1,[4.166974899999332],[None],5,1.2488972000137437,,,,,0,29,29,13,1835.9804820999852,,20,Female,Right handed,Corrected to normal,,,,,,,,,,,,,,,,,,,,,,,,,,,,,,,,,,,,,,,,1835.9630488000112,1835.9804820999852,1835.9804820999852,1835.9804820999852,1835.9804820999852,1835.9804820999852,1835.9804820999852,1840.1482384999981,['l'],1,[4.166974899999332],[None],1840.1491837000067,1840.1638877000078,1840.1638877000078,1840.1638877000078,1841.4142687999993,5,1.2488972000137437,5,1.2488972000137437,,,,,,sub42_NB,001,2026-01-20_12h05.27.677,recognitionstage,,2025.1.1,60.18603502850058,2026-01-20 12h07.13.312625 +0530,
,,,30,30,0,21,frames\Vid21_BB_T.png,frames\Vid21_L.png,['l'],1,[2.8506201000127476],[None],5,0.9973422000184655,,,,,0,30,30,20,1841.4492879000027,,20,Female,Right handed,Corrected to normal,,,,,,,,,,,,,,,,,,,,,,,,,,,,,,,,,,,,,,,,1841.4298213000002,1841.4492879000027,1841.4492879000027,1841.4492879000027,1841.4492879000027,1841.4492879000027,1841.4492879000027,1844.3160684999893,['l'],1,[2.8506201000127476],[None],1844.3172346999927,1844.330204900005,1844.330204900005,1844.330204900005,1845.3308240000042,5,0.9973422000184655,5,0.9973422000184655,,,,,,sub42_NB,001,2026-01-20_12h05.27.677,recognitionstage,,2025.1.1,60.18603502850058,2026-01-20 12h07.13.312625 +0530,
,,,31,31,0,33,frames\Vid33_BB_T.png,frames\Vid33_L.png,['r'],1,[6.151098000002094],[None],5,0.6638836999773048,,,,,0,31,31,32,1845.3484938000038,,20,Female,Right handed,Corrected to normal,,,,,,,,,,,,,,,,,,,,,,,,,,,,,,,,,,,,,,,,1845.3403247999959,1845.3484938000038,1845.3484938000038,1845.3484938000038,1845.3484938000038,1845.3484938000038,1845.3484938000038,1851.5160595999914,['r'],1,[6.151098000002094],[None],1851.5170500999957,1851.5302235000127,1851.5302235000127,1851.5302235000127,1852.1979774000065,5,0.6638836999773048,5,0.6638836999773048,,,,,,sub42_NB,001,2026-01-20_12h05.27.677,recognitionstage,,2025.1.1,60.18603502850058,2026-01-20 12h07.13.312625 +0530,
,,,32,32,0,35,frames\Vid35_EM_T.png,frames\Vid35_L.png,['l'],1,[2.380472099990584],[None],5,0.5989143000042532,,,,,0,32,32,34,1852.2149815000012,,20,Female,Right handed,Corrected to normal,,,,,,,,,,,,,,,,,,,,,,,,,,,,,,,,,,,,,,,,1852.2076500999974,1852.2149815000012,1852.2149815000012,1852.2149815000012,1852.2149815000012,1852.2149815000012,1852.2149815000012,1854.5986908999912,['l'],1,[2.380472099990584],[None],1854.599503400008,1854.6131420999882,1854.6131420999882,1854.6131420999882,1855.2138422999997,5,0.5989143000042532,5,0.5989143000042532,,,,,,sub42_NB,001,2026-01-20_12h05.27.677,recognitionstage,,2025.1.1,60.18603502850058,2026-01-20 12h07.13.312625 +0530,
,,,33,33,0,36,frames\Vid36_BB_T.png,frames\Vid36_L.png,['r'],1,[3.188704299973324],[None],5,0.5475085999933071,,,,,0,33,33,35,1855.2467792000098,,20,Female,Right handed,Corrected to normal,,,,,,,,,,,,,,,,,,,,,,,,,,,,,,,,,,,,,,,,1855.2271481000062,1855.2467792000098,1855.2467792000098,1855.2467792000098,1855.2467792000098,1855.2467792000098,1855.2467792000098,1858.4493408999988,['r'],1,[3.188704299973324],[None],1858.4507199999935,1858.4636764999887,1858.4636764999887,1858.4636764999887,1859.014507099986,5,0.5475085999933071,5,0.5475085999933071,,,,,,sub42_NB,001,2026-01-20_12h05.27.677,recognitionstage,,2025.1.1,60.18603502850058,2026-01-20 12h07.13.312625 +0530,
,,,34,34,0,34,frames\Vid34_BB_T.png,frames\Vid34_L.png,['l'],1,[4.996878500009188],[None],5,0.548160000005737,,,,,0,34,34,33,1859.0465735000034,,20,Female,Right handed,Corrected to normal,,,,,,,,,,,,,,,,,,,,,,,,,,,,,,,,,,,,,,,,1859.02483390001,1859.0465735000034,1859.0465735000034,1859.0465735000034,1859.0465735000034,1859.0465735000034,1859.0465735000034,1864.0486506999878,['l'],1,[4.996878500009188],[None],1864.0497755999968,1864.0636472000042,1864.0636472000042,1864.0636472000042,1864.6135764000064,5,0.548160000005737,5,0.548160000005737,,,,,,sub42_NB,001,2026-01-20_12h05.27.677,recognitionstage,,2025.1.1,60.18603502850058,2026-01-20 12h07.13.312625 +0530,
,,,35,35,0,6,frames\Vid6_BB_T.png,frames\Vid6_L.png,['r'],1,[4.458863500010921],[None],5,0.6988971999962814,,,,,0,35,35,5,1864.6806485999841,,20,Female,Right handed,Corrected to normal,,,,,,,,,,,,,,,,,,,,,,,,,,,,,,,,,,,,,,,,1864.6616234999965,1864.6806485999841,1864.6806485999841,1864.6806485999841,1864.6806485999841,1864.6806485999841,1864.6806485999841,1869.1484636999958,['r'],1,[4.458863500010921],[None],1869.1494698000024,1869.1638769999845,1869.1638769999845,1869.1638769999845,1869.8645193999982,5,0.6988971999962814,5,0.6988971999962814,,,,,,sub42_NB,001,2026-01-20_12h05.27.677,recognitionstage,,2025.1.1,60.18603502850058,2026-01-20 12h07.13.312625 +0530,
,,,36,36,0,1,frames\Vid1_EM_T.png,frames\Vid1_L.png,['l'],1,[6.861892399989301],[None],4,1.3486048000049777,,,,,0,36,36,0,1869.9336374000122,,20,Female,Right handed,Corrected to normal,,,,,,,,,,,,,,,,,,,,,,,,,,,,,,,,,,,,,,,,1869.916436600004,1869.9336374000122,1869.9336374000122,1869.9336374000122,1869.9336374000122,1869.9336374000122,1869.9336374000122,1876.7987167999963,['l'],1,[6.861892399989301],[None],1876.7996087000065,1876.814030300011,1876.814030300011,1876.814030300011,1878.1639278999937,4,1.3486048000049777,4,1.3486048000049777,,,,,,sub42_NB,001,2026-01-20_12h05.27.677,recognitionstage,,2025.1.1,60.18603502850058,2026-01-20 12h07.13.312625 +0530,
,,,37,37,0,24,frames\Vid24_BB_T.png,frames\Vid24_L.png,['l'],1,[5.4602376999973785],[None],5,1.1807290999859106,,,,,0,37,37,23,1878.1994080999866,,20,Female,Right handed,Corrected to normal,,,,,,,,,,,,,,,,,,,,,,,,,,,,,,,,,,,,,,,,1878.175997399987,1878.1994080999866,1878.1994080999866,1878.1994080999866,1878.1994080999866,1878.1994080999866,1878.1994080999866,1883.6655174999905,['l'],1,[5.4602376999973785],[None],1883.6671002999938,1883.6803318999882,1883.6803318999882,1883.6803318999882,1884.8641355999862,5,1.1807290999859106,5,1.1807290999859106,,,,,,sub42_NB,001,2026-01-20_12h05.27.677,recognitionstage,,2025.1.1,60.18603502850058,2026-01-20 12h07.13.312625 +0530,
,,,38,38,0,13,frames\Vid13_BB_T.png,frames\Vid13_L.png,['r'],1,[3.1774500999890734],[None],5,0.8652732000045944,,,,,0,38,38,12,1884.914057899994,,20,Female,Right handed,Corrected to normal,,,,,,,,,,,,,,,,,,,,,,,,,,,,,,,,,,,,,,,,1884.8977199000074,1884.914057899994,1884.914057899994,1884.914057899994,1884.914057899994,1884.914057899994,1884.914057899994,1888.098739100009,['r'],1,[3.1774500999890734],[None],1888.099568500009,1888.1132791999844,1888.1132791999844,1888.1132791999844,1888.980714800011,5,0.8652732000045944,5,0.8652732000045944,,,,,,sub42_NB,001,2026-01-20_12h05.27.677,recognitionstage,,2025.1.1,60.18603502850058,2026-01-20 12h07.13.312625 +0530,
,,,39,39,0,23,frames\Vid23_EM_T.png,frames\Vid23_L.png,['l'],1,[2.6357522000034805],[None],5,0.9469416000065394,,,,,0,39,39,22,1889.0157643999846,,20,Female,Right handed,Corrected to normal,,,,,,,,,,,,,,,,,,,,,,,,,,,,,,,,,,,,,,,,1888.9965998000116,1889.0157643999846,1889.0157643999846,1889.0157643999846,1889.0157643999846,1889.0157643999846,1889.0157643999846,1891.6659681999881,['l'],1,[2.6357522000034805],[None],1891.667066599999,1891.6796142999956,1891.6796142999956,1891.6796142999956,1892.63146840001,5,0.9469416000065394,5,0.9469416000065394,,,,,,sub42_NB,001,2026-01-20_12h05.27.677,recognitionstage,,2025.1.1,60.18603502850058,2026-01-20 12h07.13.312625 +0530,
,,,,,,,,,,,,,,,,,,,,,,,,,20,Female,Right handed,Corrected to normal,,,,,,,,,,,,,,,,,,,,,,,,,,,,,,,,,,,,,,,,,,,,,,,,,,,,,,,,,,,,,1892.631581099995,1892.6471528999973,1892.6471528999973,1912.631767599989,None,sub42_NB,001,2026-01-20_12h05.27.677,recognitionstage,,2025.1.1,60.18603502850058,2026-01-20 12h07.13.312625 +0530,
