path,duration,is_repeat,thisN,thisTrialN,thisRepN,movie_id,target_img,lure_img,resp.keys,resp.corr,resp.rt,resp.duration,conf_radio.response,conf_radio.rt,movie.thisRepN,movie.thisTrialN,movie.thisN,movie.thisIndex,recogloop.thisRepN,recogloop.thisTrialN,recogloop.thisN,recogloop.thisIndex,thisRow.t,notes,age,gender,handedness,vision,caffeine_2h,alcohol_smoke_12h,demographics.started,demographics.stopped,Instructions.started,text1.started,key_resp.started,Instructions.stopped,key_resp.keys,key_resp.rt,key_resp.duration,instruction_2.started,text2.started,key_resp_2.started,instruction_2.stopped,key_resp_2.keys,key_resp_2.rt,key_resp_2.duration,Videos.started,movie_2.started,vigilance_resp.started,movie_2.stopped,Videos.stopped,movie.vigilance_resp.keys,vigilance_pressed,vigilance_correct,ISI.started,text.started,ISI.stopped,text.stopped,movie.vigilance_resp.rt,movie.vigilance_resp.duration,recognition.started,text_4.started,key_resp_3.started,recognition.stopped,key_resp_3.keys,key_resp_3.rt,key_resp_3.duration,recognition_task.started,leftimage.started,rightimage.started,resp.started,frames_question.started,right_label.started,left_label.started,recognition_task.stopped,recogloop.resp.keys,recogloop.resp.corr,recogloop.resp.rt,recogloop.resp.duration,confidence.started,conf_text.started,conf_radio.started,conf_label.started,confidence.stopped,recogloop.conf_radio.response,recogloop.conf_radio.rt,confidence,confidence_rt,thank_you.started,text_6.started,key_resp_4.started,thank_you.stopped,key_resp_4.keys,key_resp_4.rt,key_resp_4.duration,participant,session,date,expName,expVersion,psychopyVersion,frameRate,expStart,...105
,,,,,,,,,,,,,,,,,,,,,,,,,20,Female,Right handed,Corrected to normal,Caffeine consumed in last 2 hours?,Alcohol or smoking in last 12 hours?,0.01424280001083389,0.017590700008440763,,,,,,,,,,,,,,,,,,,,,,,,,,,,,,,,,,,,,,,,,,,,,,,,,,,,,,,,,,,,,,,,sub45_NB,001,2026-01-20_14h39.33.541,recognitionstage,,2025.1.1,59.945856904998806,2026-01-20 14h41.10.585415 +0530,
,,,,,,,,,,,,,,,,,,,,,,,,,20,Female,Right handed,Corrected to normal,,,,,0.017612199997529387,0.033503000013297424,0.033503000013297424,7.683121200010646,space,7.635182500001974,None,,,,,,,,,,,,,,,,,,,,,,,,,,,,,,,,,,,,,,,,,,,,,,,,,,,,,,,,,sub45_NB,001,2026-01-20_14h39.33.541,recognitionstage,,2025.1.1,59.945856904998806,2026-01-20 14h41.10.585415 +0530,
,,,,,,,,,,,,,,,,,,,,,,,,,20,Female,Right handed,Corrected to normal,,,,,,,,,,,,7.68315419999999,7.701482100004796,7.701482100004796,19.70182330001262,space,11.991038600011962,None,,,,,,,,,,,,,,,,,,,,,,,,,,,,,,,,,,,,,,,,,,,,,,,,,,sub45_NB,001,2026-01-20_14h39.33.541,recognitionstage,,2025.1.1,59.945856904998806,2026-01-20 14h41.10.585415 +0530,
Trimmed_videos/natural_2.mp4,31,0,44,44,0,,,,,,,,,,0,44,44,1,,,,,1560.4329189000127,,20,Female,Right handed,Corrected to normal,,,,,,,,,,,,,,,,,,,1560.3800431000127,1560.4329189000127,1560.4329189000127,1592.1657268000126,1592.0149409000005,None,0,1,1592.1506811,1592.1657268000126,1594.6519346999994,1560.4329189000127,2.5683617000177037,None,1594.6520130000135,1594.6676022000029,1594.6676022000029,1629.6357583000208,space,34.95294429999194,None,,,,,,,,,,,,,,,,,,,,,,,,,,,,,sub45_NB,001,2026-01-20_14h39.33.541,recognitionstage,,2025.1.1,59.945856904998806,2026-01-20 14h41.10.585415 +0530,
,,,0,0,0,38,frames\Vid38_EM_T.png,frames\Vid38_L.png,['r'],1,[7.851602599985199],[None],2,5.394458999973722,,,,,0,0,0,37,1629.665039000014,,20,Female,Right handed,Corrected to normal,,,,,,,,,,,,,,,,,,,,,,,,,,,,,,,,,,,,,,,,1629.6585597000085,1629.665039000014,1629.665039000014,1629.665039000014,1629.665039000014,1629.665039000014,1629.665039000014,1637.5208039999998,['r'],1,[7.851602599985199],[None],1637.5227135000168,1637.547927000007,1637.547927000007,1637.547927000007,1642.934385600005,2,5.394458999973722,2,5.394458999973722,,,,,,,,sub45_NB,001,2026-01-20_14h39.33.541,recognitionstage,,2025.1.1,59.945856904998806,2026-01-20 14h41.10.585415 +0530,
,,,1,1,0,35,frames\Vid35_EM_T.png,frames\Vid35_L.png,['l'],1,[6.151372699998319],[None],2,1.6810648000100628,,,,,0,1,1,34,1642.965127500007,,20,Female,Right handed,Corrected to normal,,,,,,,,,,,,,,,,,,,,,,,,,,,,,,,,,,,,,,,,1642.9463561000011,1642.965127500007,1642.965127500007,1642.965127500007,1642.965127500007,1642.965127500007,1642.965127500007,1649.1186007000215,['l'],1,[6.151372699998319],[None],1649.1194519000128,1649.1331177000247,1649.1331177000247,1649.1331177000247,1650.8174646000261,2,1.6810648000100628,2,1.6810648000100628,,,,,,,,sub45_NB,001,2026-01-20_14h39.33.541,recognitionstage,,2025.1.1,59.945856904998806,2026-01-20 14h41.10.585415 +0530,
,,,2,2,0,3,frames\Vid3_BB_T.png,frames\Vid3_L.png,['l'],1,[4.201416600000812],[None],5,2.3476958999817725,,,,,0,2,2,2,1650.8670224000234,,20,Female,Right handed,Corrected to normal,,,,,,,,,,,,,,,,,,,,,,,,,,,,,,,,,,,,,,,,1650.8561148000008,1650.8670224000234,1650.8670224000234,1650.8670224000234,1650.8670224000234,1650.8670224000234,1650.8670224000234,1655.0851646000228,['l'],1,[4.201416600000812],[None],1655.0860609000083,1655.0996324000007,1655.0996324000007,1655.0996324000007,1657.4510859000147,5,2.3476958999817725,5,2.3476958999817725,,,,,,,,sub45_NB,001,2026-01-20_14h39.33.541,recognitionstage,,2025.1.1,59.945856904998806,2026-01-20 14h41.10.585415 +0530,
,,,3,3,0,16,frames\Vid16_EM_T.png,frames\Vid16_L.png,['l'],1,[2.969027199986158],[None],4,1.9320414999965578,,,,,0,3,3,15,1657.5156278000213,,20,Female,Right handed,Corrected to normal,,,,,,,,,,,,,,,,,,,,,,,,,,,,,,,,,,,,,,,,1657.5011548000039,1657.5156278000213,1657.5156278000213,1657.5156278000213,1657.5156278000213,1657.5156278000213,1657.5156278000213,1660.501325500023,['l'],1,[2.969027199986158],[None],1660.5019898000173,1660.5163609000156,1660.5163609000156,1660.5163609000156,1662.4507531000127,4,1.9320414999965578,4,1.9320414999965578,,,,,,,,sub45_NB,001,2026-01-20_14h39.33.541,recognitionstage,,2025.1.1,59.945856904998806,2026-01-20 14h41.10.585415 +0530,
,,,4,4,0,10,frames\Vid10_BB_T.png,frames\Vid10_L.png,['l'],1,[4.140885499975411],[None],4,3.9477318999997806,,,,,0,4,4,9,1662.5197302000015,,20,Female,Right handed,Corrected to normal,,,,,,,,,,,,,,,,,,,,,,,,,,,,,,,,,,,,,,,,1662.4963938000146,1662.5197302000015,1662.5197302000015,1662.5197302000015,1662.5197302000015,1662.5197302000015,1662.5197302000015,1666.668300200021,['l'],1,[4.140885499975411],[None],1666.669336400024,1666.6831073000212,1666.6831073000212,1666.6831073000212,1670.6345178000047,4,3.9477318999997806,4,3.9477318999997806,,,,,,,,sub45_NB,001,2026-01-20_14h39.33.541,recognitionstage,,2025.1.1,59.945856904998806,2026-01-20 14h41.10.585415 +0530,
,,,5,5,0,18,frames\Vid18_EM_T.png,frames\Vid18_L.png,['l'],1,[2.8790583000227343],[None],4,1.9319093999802135,,,,,0,5,5,17,1670.6694302000105,,20,Female,Right handed,Corrected to normal,,,,,,,,,,,,,,,,,,,,,,,,,,,,,,,,,,,,,,,,1670.6463182000152,1670.6694302000105,1670.6694302000105,1670.6694302000105,1670.6694302000105,1670.6694302000105,1670.6694302000105,1673.5515083000064,['l'],1,[2.8790583000227343],[None],1673.552233399998,1673.5663054000179,1673.5663054000179,1673.5663054000179,1675.5007852000126,4,1.9319093999802135,4,1.9319093999802135,,,,,,,,sub45_NB,001,2026-01-20_14h39.33.541,recognitionstage,,2025.1.1,59.945856904998806,2026-01-20 14h41.10.585415 +0530,
,,,6,6,0,23,frames\Vid23_EM_T.png,frames\Vid23_L.png,['r'],1,[5.143549000000348],[None],2,2.247919899993576,,,,,0,6,6,22,1675.533036400011,,20,Female,Right handed,Corrected to normal,,,,,,,,,,,,,,,,,,,,,,,,,,,,,,,,,,,,,,,,1675.5161131000204,1675.533036400011,1675.533036400011,1675.533036400011,1675.533036400011,1675.533036400011,1675.533036400011,1680.6852116000082,['r'],1,[5.143549000000348],[None],1680.6860486000078,1680.6996743000054,1680.6996743000054,1680.6996743000054,1682.9511918000062,2,2.247919899993576,2,2.247919899993576,,,,,,,,sub45_NB,001,2026-01-20_14h39.33.541,recognitionstage,,2025.1.1,59.945856904998806,2026-01-20 14h41.10.585415 +0530,
,,,7,7,0,14,frames\Vid14_BB_T.png,frames\Vid14_L.png,['r'],1,[4.075256400014041],[None],3,1.980799199984176,,,,,0,7,7,13,1683.017304100009,,20,Female,Right handed,Corrected to normal,,,,,,,,,,,,,,,,,,,,,,,,,,,,,,,,,,,,,,,,1682.9956156999979,1683.017304100009,1683.017304100009,1683.017304100009,1683.017304100009,1683.017304100009,1683.017304100009,1687.1020348000166,['r'],1,[4.075256400014041],[None],1687.1030836999998,1687.1162239999976,1687.1162239999976,1687.1162239999976,1689.1006740000157,3,1.980799199984176,3,1.980799199984176,,,,,,,,sub45_NB,001,2026-01-20_14h39.33.541,recognitionstage,,2025.1.1,59.945856904998806,2026-01-20 14h41.10.585415 +0530,
,,,8,8,0,34,frames\Vid34_BB_T.png,frames\Vid34_L.png,['r'],1,[5.788952800008701],[None],4,2.464580700005172,,,,,0,8,8,33,1689.1355588000151,,20,Female,Right handed,Corrected to normal,,,,,,,,,,,,,,,,,,,,,,,,,,,,,,,,,,,,,,,,1689.111343800003,1689.1355588000151,1689.1355588000151,1689.1355588000151,1689.1355588000151,1689.1355588000151,1689.1355588000151,1694.9346091000189,['r'],1,[5.788952800008701],[None],1694.9359460000123,1694.9499969000171,1694.9499969000171,1694.9499969000171,1697.4180485000252,4,2.464580700005172,4,2.464580700005172,,,,,,,,sub45_NB,001,2026-01-20_14h39.33.541,recognitionstage,,2025.1.1,59.945856904998806,2026-01-20 14h41.10.585415 +0530,
,,,9,9,0,7,frames\Vid7_EM_T.png,frames\Vid7_L.png,['r'],1,[3.408905699994648],[None],4,1.9151748000003863,,,,,0,9,9,6,1697.4835425000056,,20,Female,Right handed,Corrected to normal,,,,,,,,,,,,,,,,,,,,,,,,,,,,,,,,,,,,,,,,1697.4614864000177,1697.4835425000056,1697.4835425000056,1697.4835425000056,1697.4835425000056,1697.4835425000056,1697.4835425000056,1700.9015920000093,['r'],1,[3.408905699994648],[None],1700.902286800003,1700.9162461000087,1700.9162461000087,1700.9162461000087,1702.8346824000182,4,1.9151748000003863,4,1.9151748000003863,,,,,,,,sub45_NB,001,2026-01-20_14h39.33.541,recognitionstage,,2025.1.1,59.945856904998806,2026-01-20 14h41.10.585415 +0530,
,,,10,10,0,26,frames\Vid26_EM_T.png,frames\Vid26_L.png,['l'],1,[4.407595600001514],[None],5,1.7662976999999955,,,,,0,10,10,25,1702.8688578000001,,20,Female,Right handed,Corrected to normal,,,,,,,,,,,,,,,,,,,,,,,,,,,,,,,,,,,,,,,,1702.8497002000222,1702.8688578000001,1702.8688578000001,1702.8688578000001,1702.8688578000001,1702.8688578000001,1702.8688578000001,1707.284838600026,['l'],1,[4.407595600001514],[None],1707.2855799000245,1707.2998078000091,1707.2998078000091,1707.2998078000091,1709.0667771000008,5,1.7662976999999955,5,1.7662976999999955,,,,,,,,sub45_NB,001,2026-01-20_14h39.33.541,recognitionstage,,2025.1.1,59.945856904998806,2026-01-20 14h41.10.585415 +0530,
,,,11,11,0,21,frames\Vid21_BB_T.png,frames\Vid21_L.png,['r'],1,[3.2568195999774616],[None],5,3.281827200000407,,,,,0,11,11,20,1709.0997263000172,,20,Female,Right handed,Corrected to normal,,,,,,,,,,,,,,,,,,,,,,,,,,,,,,,,,,,,,,,,1709.0783249000087,1709.0997263000172,1709.0997263000172,1709.0997263000172,1709.0997263000172,1709.0997263000172,1709.0997263000172,1712.367728000012,['r'],1,[3.2568195999774616],[None],1712.368676700018,1712.383246500016,1712.383246500016,1712.383246500016,1715.6671753000119,5,3.281827200000407,5,3.281827200000407,,,,,,,,sub45_NB,001,2026-01-20_14h39.33.541,recognitionstage,,2025.1.1,59.945856904998806,2026-01-20 14h41.10.585415 +0530,
,,,12,12,0,1,frames\Vid1_EM_T.png,frames\Vid1_L.png,['l'],0,[6.790275000006659],[None],2,2.8330331000033766,,,,,0,12,12,0,1715.734100600006,,20,Female,Right handed,Corrected to normal,,,,,,,,,,,,,,,,,,,,,,,,,,,,,,,,,,,,,,,,1715.7132788000163,1715.734100600006,1715.734100600006,1715.734100600006,1715.734100600006,1715.734100600006,1715.734100600006,1722.533922600007,['l'],0,[6.790275000006659],[None],1722.5345079000108,1722.5499880000134,1722.5499880000134,1722.5499880000134,1725.3843901000218,2,2.8330331000033766,2,2.8330331000033766,,,,,,,,sub45_NB,001,2026-01-20_14h39.33.541,recognitionstage,,2025.1.1,59.945856904998806,2026-01-20 14h41.10.585415 +0530,
,,,13,13,0,24,frames\Vid24_BB_T.png,frames\Vid24_L.png,['r'],1,[6.425222299993038],[None],5,1.6656821999931708,,,,,0,13,13,23,1725.4192772000097,,20,Female,Right handed,Corrected to normal,,,,,,,,,,,,,,,,,,,,,,,,,,,,,,,,,,,,,,,,1725.3968113000155,1725.4192772000097,1725.4192772000097,1725.4192772000097,1725.4192772000097,1725.4192772000097,1725.4192772000097,1731.851327500015,['r'],1,[6.425222299993038],[None],1731.8523978000158,1731.8666095000226,1731.8666095000226,1731.8666095000226,1733.5344520000217,5,1.6656821999931708,5,1.6656821999931708,,,,,,,,sub45_NB,001,2026-01-20_14h39.33.541,recognitionstage,,2025.1.1,59.945856904998806,2026-01-20 14h41.10.585415 +0530,
,,,14,14,0,5,frames\Vid5_EM_T.png,frames\Vid5_L.png,['l'],0,[4.588746199995512],[None],2,2.0161229000077583,,,,,0,14,14,4,1733.583702600008,,20,Female,Right handed,Corrected to normal,,,,,,,,,,,,,,,,,,,,,,,,,,,,,,,,,,,,,,,,1733.5647942000069,1733.583702600008,1733.583702600008,1733.583702600008,1733.583702600008,1733.583702600008,1733.583702600008,1738.1847291000013,['l'],0,[4.588746199995512],[None],1738.185554100026,1738.2004945000226,1738.2004945000226,1738.2004945000226,1740.217045700003,2,2.0161229000077583,2,2.0161229000077583,,,,,,,,sub45_NB,001,2026-01-20_14h39.33.541,recognitionstage,,2025.1.1,59.945856904998806,2026-01-20 14h41.10.585415 +0530,
,,,15,15,0,19,frames\Vid19_BB_T.png,frames\Vid19_L.png,['l'],1,[2.2567798999953084],[None],3,1.7977886000007857,,,,,0,15,15,18,1740.251711800025,,20,Female,Right handed,Corrected to normal,,,,,,,,,,,,,,,,,,,,,,,,,,,,,,,,,,,,,,,,1740.2279178000172,1740.251711800025,1740.251711800025,1740.251711800025,1740.251711800025,1740.251711800025,1740.251711800025,1742.5184496000002,['l'],1,[2.2567798999953084],[None],1742.5196822000144,1742.5334494000126,1742.5334494000126,1742.5334494000126,1744.334315300017,3,1.7977886000007857,3,1.7977886000007857,,,,,,,,sub45_NB,001,2026-01-20_14h39.33.541,recognitionstage,,2025.1.1,59.945856904998806,2026-01-20 14h41.10.585415 +0530,
,,,16,16,0,20,frames\Vid20_EM_T.png,frames\Vid20_L.png,['l'],1,[3.109163900022395],[None],3,1.7325986000068951,,,,,0,16,16,19,1744.3514810000197,,20,Female,Right handed,Corrected to normal,,,,,,,,,,,,,,,,,,,,,,,,,,,,,,,,,,,,,,,,1744.3425419999985,1744.3514810000197,1744.3514810000197,1744.3514810000197,1744.3514810000197,1744.3514810000197,1744.3514810000197,1747.468721400015,['l'],1,[3.109163900022395],[None],1747.4701471000153,1747.4830030000012,1747.4830030000012,1747.4830030000012,1749.2171339000051,3,1.7325986000068951,3,1.7325986000068951,,,,,,,,sub45_NB,001,2026-01-20_14h39.33.541,recognitionstage,,2025.1.1,59.945856904998806,2026-01-20 14h41.10.585415 +0530,
,,,17,17,0,32,frames\Vid32_EM_T.png,frames\Vid32_L.png,['r'],1,[2.2114622999797575],[None],5,2.1807281999790575,,,,,0,17,17,31,1749.2492567000154,,20,Female,Right handed,Corrected to normal,,,,,,,,,,,,,,,,,,,,,,,,,,,,,,,,,,,,,,,,1749.2283226000145,1749.2492567000154,1749.2492567000154,1749.2492567000154,1749.2492567000154,1749.2492567000154,1749.2492567000154,1751.4687998000009,['r'],1,[2.2114622999797575],[None],1751.4697477000009,1751.482833600021,1751.482833600021,1751.482833600021,1753.6676939000026,5,2.1807281999790575,5,2.1807281999790575,,,,,,,,sub45_NB,001,2026-01-20_14h39.33.541,recognitionstage,,2025.1.1,59.945856904998806,2026-01-20 14h41.10.585415 +0530,
,,,18,18,0,27,frames\Vid27_BB_T.png,frames\Vid27_L.png,['r'],1,[2.648707000014838],[None],5,1.7976360000029672,,,,,0,18,18,26,1753.699838600005,,20,Female,Right handed,Corrected to normal,,,,,,,,,,,,,,,,,,,,,,,,,,,,,,,,,,,,,,,,1753.6783461000014,1753.699838600005,1753.699838600005,1753.699838600005,1753.699838600005,1753.699838600005,1753.699838600005,1756.3523883000016,['r'],1,[2.648707000014838],[None],1756.3534595000092,1756.3662082000228,1756.3662082000228,1756.3662082000228,1758.1668709000223,5,1.7976360000029672,5,1.7976360000029672,,,,,,,,sub45_NB,001,2026-01-20_14h39.33.541,recognitionstage,,2025.1.1,59.945856904998806,2026-01-20 14h41.10.585415 +0530,
,,,19,19,0,40,frames\Vid40_EM_T.png,frames\Vid40_L.png,['l'],1,[7.27559159998782],[None],2,1.34907050000038,,,,,0,19,19,39,1758.1850224000227,,20,Female,Right handed,Corrected to normal,,,,,,,,,,,,,,,,,,,,,,,,,,,,,,,,,,,,,,,,1758.173793599999,1758.1850224000227,1758.1850224000227,1758.1850224000227,1758.1850224000227,1758.1850224000227,1758.1850224000227,1765.467742800014,['l'],1,[7.27559159998782],[None],1765.4687730000005,1765.4831028000044,1765.4831028000044,1765.4831028000044,1766.834027200006,2,1.34907050000038,2,1.34907050000038,,,,,,,,sub45_NB,001,2026-01-20_14h39.33.541,recognitionstage,,2025.1.1,59.945856904998806,2026-01-20 14h41.10.585415 +0530,
,,,20,20,0,33,frames\Vid33_BB_T.png,frames\Vid33_L.png,['r'],1,[3.7771185000019614],[None],3,3.0821255999908317,,,,,0,20,20,32,1766.8516328000114,,20,Female,Right handed,Corrected to normal,,,,,,,,,,,,,,,,,,,,,,,,,,,,,,,,,,,,,,,,1766.8436647000199,1766.8516328000114,1766.8516328000114,1766.8516328000114,1766.8516328000114,1766.8516328000114,1766.8516328000114,1770.6350815000187,['r'],1,[3.7771185000019614],[None],1770.6359421000234,1770.6498351000191,1770.6498351000191,1770.6498351000191,1773.7333548000024,3,3.0821255999908317,3,3.0821255999908317,,,,,,,,sub45_NB,001,2026-01-20_14h39.33.541,recognitionstage,,2025.1.1,59.945856904998806,2026-01-20 14h41.10.585415 +0530,
,,,21,21,0,17,frames\Vid17_BB_T.png,frames\Vid17_L.png,['l'],1,[3.9337853000033647],[None],5,1.8826617000158876,,,,,0,21,21,16,1773.7667881000089,,20,Female,Right handed,Corrected to normal,,,,,,,,,,,,,,,,,,,,,,,,,,,,,,,,,,,,,,,,1773.7589380000136,1773.7667881000089,1773.7667881000089,1773.7667881000089,1773.7667881000089,1773.7667881000089,1773.7667881000089,1777.7013470000238,['l'],1,[3.9337853000033647],[None],1777.7022164000082,1777.7166061000025,1777.7166061000025,1777.7166061000025,1779.6008580000198,5,1.8826617000158876,5,1.8826617000158876,,,,,,,,sub45_NB,001,2026-01-20_14h39.33.541,recognitionstage,,2025.1.1,59.945856904998806,2026-01-20 14h41.10.585415 +0530,
,,,22,22,0,36,frames\Vid36_BB_T.png,frames\Vid36_L.png,['l'],1,[4.090148000017507],[None],2,1.96492520000902,,,,,0,22,22,35,1779.6343661000137,,20,Female,Right handed,Corrected to normal,,,,,,,,,,,,,,,,,,,,,,,,,,,,,,,,,,,,,,,,1779.6145665000076,1779.6343661000137,1779.6343661000137,1779.6343661000137,1779.6343661000137,1779.6343661000137,1779.6343661000137,1783.7345730000234,['l'],1,[4.090148000017507],[None],1783.7355243000202,1783.749903900025,1783.749903900025,1783.749903900025,1785.7170460000052,2,1.96492520000902,2,1.96492520000902,,,,,,,,sub45_NB,001,2026-01-20_14h39.33.541,recognitionstage,,2025.1.1,59.945856904998806,2026-01-20 14h41.10.585415 +0530,
,,,23,23,0,2,frames\Vid2_BB_T.png,frames\Vid2_L.png,['l'],1,[3.2451035999984015],[None],5,2.0973987999896053,,,,,0,23,23,1,1785.7675083000213,,20,Female,Right handed,Corrected to normal,,,,,,,,,,,,,,,,,,,,,,,,,,,,,,,,,,,,,,,,1785.753597700008,1785.7675083000213,1785.7675083000213,1785.7675083000213,1785.7675083000213,1785.7675083000213,1785.7675083000213,1789.0193753000058,['l'],1,[3.2451035999984015],[None],1789.020338900009,1789.033048000012,1789.033048000012,1789.033048000012,1791.133438800025,5,2.0973987999896053,5,2.0973987999896053,,,,,,,,sub45_NB,001,2026-01-20_14h39.33.541,recognitionstage,,2025.1.1,59.945856904998806,2026-01-20 14h41.10.585415 +0530,
,,,24,24,0,22,frames\Vid22_EM_T.png,frames\Vid22_L.png,['r'],1,[3.066995400004089],[None],5,1.8144819000153802,,,,,0,24,24,21,1791.1694770000177,,20,Female,Right handed,Corrected to normal,,,,,,,,,,,,,,,,,,,,,,,,,,,,,,,,,,,,,,,,1791.1455323000264,1791.1694770000177,1791.1694770000177,1791.1694770000177,1791.1694770000177,1791.1694770000177,1791.1694770000177,1794.252083600004,['r'],1,[3.066995400004089],[None],1794.2528273000207,1794.2662241000216,1794.2662241000216,1794.2662241000216,1796.0838814000017,5,1.8144819000153802,5,1.8144819000153802,,,,,,,,sub45_NB,001,2026-01-20_14h39.33.541,recognitionstage,,2025.1.1,59.945856904998806,2026-01-20 14h41.10.585415 +0530,
,,,25,25,0,37,frames\Vid37_BB_T.png,frames\Vid37_L.png,['l'],1,[4.696063599985791],[None],5,1.6811960999912117,,,,,0,25,25,36,1796.1165464000078,,20,Female,Right handed,Corrected to normal,,,,,,,,,,,,,,,,,,,,,,,,,,,,,,,,,,,,,,,,1796.0956745000149,1796.1165464000078,1796.1165464000078,1796.1165464000078,1796.1165464000078,1796.1165464000078,1796.1165464000078,1800.8186404000153,['l'],1,[4.696063599985791],[None],1800.819884800003,1800.8333764999988,1800.8333764999988,1800.8333764999988,1802.5170266000205,5,1.6811960999912117,5,1.6811960999912117,,,,,,,,sub45_NB,001,2026-01-20_14h39.33.541,recognitionstage,,2025.1.1,59.945856904998806,2026-01-20 14h41.10.585415 +0530,
,,,26,26,0,29,frames\Vid29_BB_T.png,frames\Vid29_L.png,['l'],1,[2.238765499991132],[None],5,1.5316736999957357,,,,,0,26,26,28,1802.5497107999981,,20,Female,Right handed,Corrected to normal,,,,,,,,,,,,,,,,,,,,,,,,,,,,,,,,,,,,,,,,1802.5276947000239,1802.5497107999981,1802.5497107999981,1802.5497107999981,1802.5497107999981,1802.5497107999981,1802.5497107999981,1804.802317499998,['l'],1,[2.238765499991132],[None],1804.8031469999987,1804.8163108000008,1804.8163108000008,1804.8163108000008,1806.3501618000155,5,1.5316736999957357,5,1.5316736999957357,,,,,,,,sub45_NB,001,2026-01-20_14h39.33.541,recognitionstage,,2025.1.1,59.945856904998806,2026-01-20 14h41.10.585415 +0530,
,,,27,27,0,25,frames\Vid25_BB_T.png,frames\Vid25_L.png,['l'],0,[3.613521599996602],[None],4,2.112535399995977,,,,,0,27,27,24,1806.3831819000188,,20,Female,Right handed,Corrected to normal,,,,,,,,,,,,,,,,,,,,,,,,,,,,,,,,,,,,,,,,1806.3622723000008,1806.3831819000188,1806.3831819000188,1806.3831819000188,1806.3831819000188,1806.3831819000188,1806.3831819000188,1810.003528900008,['l'],0,[3.613521599996602],[None],1810.0049243000103,1810.0312076000264,1810.0312076000264,1810.0312076000264,1812.1336224999977,4,2.112535399995977,4,2.112535399995977,,,,,,,,sub45_NB,001,2026-01-20_14h39.33.541,recognitionstage,,2025.1.1,59.945856904998806,2026-01-20 14h41.10.585415 +0530,
,,,28,28,0,6,frames\Vid6_BB_T.png,frames\Vid6_L.png,['r'],1,[3.5806332000065595],[None],4,2.9144708999956492,,,,,0,28,28,5,1812.1838593000139,,20,Female,Right handed,Corrected to normal,,,,,,,,,,,,,,,,,,,,,,,,,,,,,,,,,,,,,,,,1812.176444200013,1812.1838593000139,1812.1838593000139,1812.1838593000139,1812.1838593000139,1812.1838593000139,1812.1838593000139,1815.7684643000248,['r'],1,[3.5806332000065595],[None],1815.7693614000164,1815.7833439000242,1815.7833439000242,1815.7833439000242,1818.700604600017,4,2.9144708999956492,4,2.9144708999956492,,,,,,,,sub45_NB,001,2026-01-20_14h39.33.541,recognitionstage,,2025.1.1,59.945856904998806,2026-01-20 14h41.10.585415 +0530,
,,,29,29,0,9,frames\Vid9_EM_T.png,frames\Vid9_L.png,['l'],1,[5.050878100009868],[None],5,1.9489413000119384,,,,,0,29,29,8,1818.7536676000163,,20,Female,Right handed,Corrected to normal,,,,,,,,,,,,,,,,,,,,,,,,,,,,,,,,,,,,,,,,1818.7373243000184,1818.7536676000163,1818.7536676000163,1818.7536676000163,1818.7536676000163,1818.7536676000163,1818.7536676000163,1823.8177477999998,['l'],1,[5.050878100009868],[None],1823.8185698000016,1823.8335781000205,1823.8335781000205,1823.8335781000205,1825.783524700004,5,1.9489413000119384,5,1.9489413000119384,,,,,,,,sub45_NB,001,2026-01-20_14h39.33.541,recognitionstage,,2025.1.1,59.945856904998806,2026-01-20 14h41.10.585415 +0530,
,,,30,30,0,31,frames\Vid31_EM_T.png,frames\Vid31_L.png,['l'],1,[2.408403699984774],[None],5,1.9649604999867734,,,,,0,30,30,30,1825.8043184000126,,20,Female,Right handed,Corrected to normal,,,,,,,,,,,,,,,,,,,,,,,,,,,,,,,,,,,,,,,,1825.7913236000168,1825.8043184000126,1825.8043184000126,1825.8043184000126,1825.8043184000126,1825.8043184000126,1825.8043184000126,1828.2180731000262,['l'],1,[2.408403699984774],[None],1828.2189478000219,1828.2337323000247,1828.2337323000247,1828.2337323000247,1830.2006385000132,5,1.9649604999867734,5,1.9649604999867734,,,,,,,,sub45_NB,001,2026-01-20_14h39.33.541,recognitionstage,,2025.1.1,59.945856904998806,2026-01-20 14h41.10.585415 +0530,
,,,31,31,0,39,frames\Vid39_BB_T.png,frames\Vid39_L.png,['r'],0,[5.570726400008425],[None],3,2.6988866000028793,,,,,0,31,31,38,1830.2179065000091,,20,Female,Right handed,Corrected to normal,,,,,,,,,,,,,,,,,,,,,,,,,,,,,,,,,,,,,,,,1830.2081753000093,1830.2179065000091,1830.2179065000091,1830.2179065000091,1830.2179065000091,1830.2179065000091,1830.2179065000091,1835.8016352000122,['r'],0,[5.570726400008425],[None],1835.8025283000025,1835.816105100006,1835.816105100006,1835.816105100006,1838.516847300023,3,2.6988866000028793,3,2.6988866000028793,,,,,,,,sub45_NB,001,2026-01-20_14h39.33.541,recognitionstage,,2025.1.1,59.945856904998806,2026-01-20 14h41.10.585415 +0530,
,,,32,32,0,4,frames\Vid4_EM_T.png,frames\Vid4_L.png,['r'],1,[2.061008699995],[None],4,1.6467498999845702,,,,,0,32,32,3,1838.5838033000182,,20,Female,Right handed,Corrected to normal,,,,,,,,,,,,,,,,,,,,,,,,,,,,,,,,,,,,,,,,1838.56246440002,1838.5838033000182,1838.5838033000182,1838.5838033000182,1838.5838033000182,1838.5838033000182,1838.5838033000182,1840.6530506999989,['r'],1,[2.061008699995],[None],1840.6543349999993,1840.681349200022,1840.681349200022,1840.681349200022,1842.3168169000128,4,1.6467498999845702,4,1.6467498999845702,,,,,,,,sub45_NB,001,2026-01-20_14h39.33.541,recognitionstage,,2025.1.1,59.945856904998806,2026-01-20 14h41.10.585415 +0530,
,,,33,33,0,13,frames\Vid13_BB_T.png,frames\Vid13_L.png,['r'],0,[3.0505206999951042],[None],5,1.747874499997124,,,,,0,33,33,12,1842.370042800001,,20,Female,Right handed,Corrected to normal,,,,,,,,,,,,,,,,,,,,,,,,,,,,,,,,,,,,,,,,1842.349327200005,1842.370042800001,1842.370042800001,1842.370042800001,1842.370042800001,1842.370042800001,1842.370042800001,1845.435269300011,['r'],0,[3.0505206999951042],[None],1845.4363344000012,1845.449914500001,1845.449914500001,1845.449914500001,1847.1998829000222,5,1.747874499997124,5,1.747874499997124,,,,,,,,sub45_NB,001,2026-01-20_14h39.33.541,recognitionstage,,2025.1.1,59.945856904998806,2026-01-20 14h41.10.585415 +0530,
,,,34,34,0,28,frames\Vid28_EM_T.png,frames\Vid28_L.png,['l'],1,[3.0157902000064496],[None],5,2.080845699994825,,,,,0,34,34,27,1847.2208210000244,,20,Female,Right handed,Corrected to normal,,,,,,,,,,,,,,,,,,,,,,,,,,,,,,,,,,,,,,,,1847.208903700026,1847.2208210000244,1847.2208210000244,1847.2208210000244,1847.2208210000244,1847.2208210000244,1847.2208210000244,1850.2520974000217,['l'],1,[3.0157902000064496],[None],1850.253052200016,1850.2662545000203,1850.2662545000203,1850.2662545000203,1852.3508648000134,5,2.080845699994825,5,2.080845699994825,,,,,,,,sub45_NB,001,2026-01-20_14h39.33.541,recognitionstage,,2025.1.1,59.945856904998806,2026-01-20 14h41.10.585415 +0530,
,,,35,35,0,8,frames\Vid8_BB_T.png,frames\Vid8_L.png,['r'],1,[3.4598936999973375],[None],4,1.8977834999968763,,,,,0,35,35,7,1852.4006556000095,,20,Female,Right handed,Corrected to normal,,,,,,,,,,,,,,,,,,,,,,,,,,,,,,,,,,,,,,,,1852.3869441999996,1852.4006556000095,1852.4006556000095,1852.4006556000095,1852.4006556000095,1852.4006556000095,1852.4006556000095,1855.8683720000263,['r'],1,[3.4598936999973375],[None],1855.869595199998,1855.8833718000096,1855.8833718000096,1855.8833718000096,1857.7838485000248,4,1.8977834999968763,4,1.8977834999968763,,,,,,,,sub45_NB,001,2026-01-20_14h39.33.541,recognitionstage,,2025.1.1,59.945856904998806,2026-01-20 14h41.10.585415 +0530,
,,,36,36,0,15,frames\Vid15_BB_T.png,frames\Vid15_L.png,['l'],1,[4.111287900013849],[None],5,2.079774500016356,,,,,0,36,36,14,1857.853336900007,,20,Female,Right handed,Corrected to normal,,,,,,,,,,,,,,,,,,,,,,,,,,,,,,,,,,,,,,,,1857.829894399998,1857.853336900007,1857.853336900007,1857.853336900007,1857.853336900007,1857.853336900007,1857.853336900007,1861.969525100023,['l'],1,[4.111287900013849],[None],1861.9710141000105,1861.983271300007,1861.983271300007,1861.983271300007,1864.067455900018,5,2.079774500016356,5,2.079774500016356,,,,,,,,sub45_NB,001,2026-01-20_14h39.33.541,recognitionstage,,2025.1.1,59.945856904998806,2026-01-20 14h41.10.585415 +0530,
,,,37,37,0,30,frames\Vid30_EM_T.png,frames\Vid30_L.png,['r'],1,[2.6771621000079904],[None],5,1.9145319999952335,,,,,0,37,37,29,1864.0874985000119,,20,Female,Right handed,Corrected to normal,,,,,,,,,,,,,,,,,,,,,,,,,,,,,,,,,,,,,,,,1864.0769874000107,1864.0874985000119,1864.0874985000119,1864.0874985000119,1864.0874985000119,1864.0874985000119,1864.0874985000119,1866.768635400018,['r'],1,[2.6771621000079904],[None],1866.7694860000047,1866.7831010000082,1866.7831010000082,1866.7831010000082,1868.7013398999989,5,1.9145319999952335,5,1.9145319999952335,,,,,,,,sub45_NB,001,2026-01-20_14h39.33.541,recognitionstage,,2025.1.1,59.945856904998806,2026-01-20 14h41.10.585415 +0530,
,,,38,38,0,12,frames\Vid12_EM_T.png,frames\Vid12_L.png,['l'],1,[4.40534490000573],[None],5,1.9985995999886654,,,,,0,38,38,11,1868.7671393000055,,20,Female,Right handed,Corrected to normal,,,,,,,,,,,,,,,,,,,,,,,,,,,,,,,,,,,,,,,,1868.7460374000075,1868.7671393000055,1868.7671393000055,1868.7671393000055,1868.7671393000055,1868.7671393000055,1868.7671393000055,1873.1853376000072,['l'],1,[4.40534490000573],[None],1873.186129300011,1873.1997260000207,1873.1997260000207,1873.1997260000207,1875.200172300014,5,1.9985995999886654,5,1.9985995999886654,,,,,,,,sub45_NB,001,2026-01-20_14h39.33.541,recognitionstage,,2025.1.1,59.945856904998806,2026-01-20 14h41.10.585415 +0530,
,,,39,39,0,11,frames\Vid11_EM_T.png,frames\Vid11_L.png,['l'],1,[2.783142400003271],[None],4,1.815426800021669,,,,,0,39,39,10,1875.2534733000211,,20,Female,Right handed,Corrected to normal,,,,,,,,,,,,,,,,,,,,,,,,,,,,,,,,,,,,,,,,1875.2426027000183,1875.2534733000211,1875.2534733000211,1875.2534733000211,1875.2534733000211,1875.2534733000211,1875.2534733000211,1878.0513726000208,['l'],1,[2.783142400003271],[None],1878.0521769000043,1878.0668320000113,1878.0668320000113,1878.0668320000113,1879.8839740999974,4,1.815426800021669,4,1.815426800021669,,,,,,,,sub45_NB,001,2026-01-20_14h39.33.541,recognitionstage,,2025.1.1,59.945856904998806,2026-01-20 14h41.10.585415 +0530,
,,,,,,,,,,,,,,,,,,,,,,,,,20,Female,Right handed,Corrected to normal,,,,,,,,,,,,,,,,,,,,,,,,,,,,,,,,,,,,,,,,,,,,,,,,,,,,,,,,,,,,,1879.8840988000156,1879.900712600007,1879.900712600007,1890.5020145000017,space,10.583948200015584,None,sub45_NB,001,2026-01-20_14h39.33.541,recognitionstage,,2025.1.1,59.945856904998806,2026-01-20 14h41.10.585415 +0530,
