path,duration,is_repeat,thisN,thisTrialN,thisRepN,movie_id,target_img,lure_img,resp.keys,resp.corr,resp.rt,resp.duration,conf_radio.response,conf_radio.rt,movie.thisRepN,movie.thisTrialN,movie.thisN,movie.thisIndex,recogloop.thisRepN,recogloop.thisTrialN,recogloop.thisN,recogloop.thisIndex,thisRow.t,notes,age,gender,handedness,vision,caffeine_2h,alcohol_smoke_12h,demographics.started,demographics.stopped,Instructions.started,text1.started,key_resp.started,Instructions.stopped,key_resp.keys,key_resp.rt,key_resp.duration,instruction_2.started,text2.started,key_resp_2.started,instruction_2.stopped,key_resp_2.keys,key_resp_2.rt,key_resp_2.duration,Videos.started,movie_2.started,vigilance_resp.started,movie_2.stopped,Videos.stopped,movie.vigilance_resp.keys,vigilance_pressed,vigilance_correct,ISI.started,text.started,ISI.stopped,text.stopped,movie.vigilance_resp.rt,movie.vigilance_resp.duration,recognition.started,text_4.started,key_resp_3.started,recognition.stopped,key_resp_3.keys,key_resp_3.rt,key_resp_3.duration,recognition_task.started,leftimage.started,rightimage.started,resp.started,frames_question.started,right_label.started,left_label.started,recognition_task.stopped,recogloop.resp.keys,recogloop.resp.corr,recogloop.resp.rt,recogloop.resp.duration,confidence.started,conf_text.started,conf_radio.started,conf_label.started,confidence.stopped,recogloop.conf_radio.response,recogloop.conf_radio.rt,confidence,confidence_rt,thank_you.started,text_6.started,key_resp_4.started,participant,session,date,expName,expVersion,psychopyVersion,frameRate,expStart,...101
,,,,,,,,,,,,,,,,,,,,,,,,,22,Male,Right handed,Normal,Caffeine consumed in last 2 hours?,Alcohol or smoking in last 12 hours?,0.018750799994450063,0.024451200006296858,,,,,,,,,,,,,,,,,,,,,,,,,,,,,,,,,,,,,,,,,,,,,,,,,,,,,,,,,,,,Sub40_NB,001,2026-01-20_09h57.08.048,recognitionstage,,2025.1.1,59.93392883262825,2026-01-20 09h59.42.538384 +0530,
,,,,,,,,,,,,,,,,,,,,,,,,,22,Male,Right handed,Normal,,,,,0.024472200020682067,0.036981500015826896,0.036981500015826896,10.387989700015169,space,10.348258799989708,None,,,,,,,,,,,,,,,,,,,,,,,,,,,,,,,,,,,,,,,,,,,,,,,,,,,,,Sub40_NB,001,2026-01-20_09h57.08.048,recognitionstage,,2025.1.1,59.93392883262825,2026-01-20 09h59.42.538384 +0530,
,,,,,,,,,,,,,,,,,,,,,,,,,22,Male,Right handed,Normal,,,,,,,,,,,,10.388041400001384,10.4049631000089,10.4049631000089,23.189190900011454,space,12.780539899977157,None,,,,,,,,,,,,,,,,,,,,,,,,,,,,,,,,,,,,,,,,,,,,,,Sub40_NB,001,2026-01-20_09h57.08.048,recognitionstage,,2025.1.1,59.93392883262825,2026-01-20 09h59.42.538384 +0530,
Trimmed_videos/natural_10.mp4,37,0,44,44,0,,,,,,,,,,0,44,44,11,,,,,1513.503405800002,,22,Male,Right handed,Normal,,,,,,,,,,,,,,,,,,,1513.453840800008,1513.503405800002,1513.503405800002,1550.8028598999954,1550.6536970000016,None,0,1,1550.7894002000103,1550.8028598999954,1553.2888251999975,1553.3048992000113,6.054537599993637,None,1553.2888949000044,1553.3048992000113,1553.3048992000113,1578.9383127000183,space,25.624403800000437,None,,,,,,,,,,,,,,,,,,,,,,,,,Sub40_NB,001,2026-01-20_09h57.08.048,recognitionstage,,2025.1.1,59.93392883262825,2026-01-20 09h59.42.538384 +0530,
,,,0,0,0,25,frames\Vid25_BB_T.png,frames\Vid25_L.png,['r'],1,[10.495514399983222],[None],4,9.750370900001144,,,,,0,0,0,24,1578.9857842000201,,22,Male,Right handed,Normal,,,,,,,,,,,,,,,,,,,,,,,,,,,,,,,,,,,,,,,,1578.9781692000106,1578.9857842000201,1578.9857842000201,1578.9857842000201,1578.9857842000201,1578.9857842000201,1578.9857842000201,1589.4885545000143,['r'],1,[10.495514399983222],[None],1589.4895380999951,1589.503816100012,1589.503816100012,1589.503816100012,1599.2541450000135,4,9.750370900001144,4,9.750370900001144,,,,Sub40_NB,001,2026-01-20_09h57.08.048,recognitionstage,,2025.1.1,59.93392883262825,2026-01-20 09h59.42.538384 +0530,
,,,1,1,0,16,frames\Vid16_EM_T.png,frames\Vid16_L.png,['l'],1,[8.569984300003853],[None],5,2.2796151000075042,,,,,0,1,1,15,1599.3192085000046,,22,Male,Right handed,Normal,,,,,,,,,,,,,,,,,,,,,,,,,,,,,,,,,,,,,,,,1599.311355200014,1599.3192085000046,1599.3192085000046,1599.3192085000046,1599.3192085000046,1599.3192085000046,1599.3192085000046,1607.9069772000075,['l'],1,[8.569984300003853],[None],1607.9082120000094,1607.9352497000073,1607.9352497000073,1607.9352497000073,1610.203699500009,5,2.2796151000075042,5,2.2796151000075042,,,,Sub40_NB,001,2026-01-20_09h57.08.048,recognitionstage,,2025.1.1,59.93392883262825,2026-01-20 09h59.42.538384 +0530,
,,,2,2,0,27,frames\Vid27_BB_T.png,frames\Vid27_L.png,['l'],1,[10.5007899000193],[None],4,2.1298377999919467,,,,,0,2,2,26,1610.2525538000045,,22,Male,Right handed,Normal,,,,,,,,,,,,,,,,,,,,,,,,,,,,,,,,,,,,,,,,1610.2411237000197,1610.2525538000045,1610.2525538000045,1610.2525538000045,1610.2525538000045,1610.2525538000045,1610.2525538000045,1620.756838900008,['l'],1,[10.5007899000193],[None],1620.7578723000188,1620.7705162000202,1620.7705162000202,1620.7705162000202,1622.9049121999997,4,2.1298377999919467,4,2.1298377999919467,,,,Sub40_NB,001,2026-01-20_09h57.08.048,recognitionstage,,2025.1.1,59.93392883262825,2026-01-20 09h59.42.538384 +0530,
,,,3,3,0,17,frames\Vid17_BB_T.png,frames\Vid17_L.png,['l'],1,[3.3757026999955997],[None],5,1.5317999999970198,,,,,0,3,3,16,1622.953609899996,,22,Male,Right handed,Normal,,,,,,,,,,,,,,,,,,,,,,,,,,,,,,,,,,,,,,,,1622.9443044000072,1622.953609899996,1622.953609899996,1622.953609899996,1622.953609899996,1622.953609899996,1622.953609899996,1626.3389239000098,['l'],1,[3.3757026999955997],[None],1626.339664900006,1626.353377099993,1626.353377099993,1626.353377099993,1627.8878121000016,5,1.5317999999970198,5,1.5317999999970198,,,,Sub40_NB,001,2026-01-20_09h57.08.048,recognitionstage,,2025.1.1,59.93392883262825,2026-01-20 09h59.42.538384 +0530,
,,,4,4,0,26,frames\Vid26_EM_T.png,frames\Vid26_L.png,['l'],1,[5.574819600005867],[None],5,1.6476544000033755,,,,,0,4,4,25,1627.938447099994,,22,Male,Right handed,Normal,,,,,,,,,,,,,,,,,,,,,,,,,,,,,,,,,,,,,,,,1627.9181946000026,1627.938447099994,1627.938447099994,1627.938447099994,1627.938447099994,1627.938447099994,1627.938447099994,1633.5229938999983,['l'],1,[5.574819600005867],[None],1633.5239300999965,1633.5520397000073,1633.5520397000073,1633.5520397000073,1635.1879342000175,5,1.6476544000033755,5,1.6476544000033755,,,,Sub40_NB,001,2026-01-20_09h57.08.048,recognitionstage,,2025.1.1,59.93392883262825,2026-01-20 09h59.42.538384 +0530,
,,,5,5,0,37,frames\Vid37_BB_T.png,frames\Vid37_L.png,['r'],1,[6.356433500011917],[None],4,2.1322146999882534,,,,,0,5,5,36,1635.2369451000122,,22,Male,Right handed,Normal,,,,,,,,,,,,,,,,,,,,,,,,,,,,,,,,,,,,,,,,1635.214947600005,1635.2369451000122,1635.2369451000122,1635.2369451000122,1635.2369451000122,1635.2369451000122,1635.2369451000122,1641.6058908000123,['r'],1,[6.356433500011917],[None],1641.6068197000131,1641.620392700017,1641.620392700017,1641.620392700017,1643.7541907000123,4,2.1322146999882534,4,2.1322146999882534,,,,Sub40_NB,001,2026-01-20_09h57.08.048,recognitionstage,,2025.1.1,59.93392883262825,2026-01-20 09h59.42.538384 +0530,
,,,6,6,0,23,frames\Vid23_EM_T.png,frames\Vid23_L.png,['l'],1,[3.4455237000074703],[None],5,1.998912000010023,,,,,0,6,6,22,1643.8039606999955,,22,Male,Right handed,Normal,,,,,,,,,,,,,,,,,,,,,,,,,,,,,,,,,,,,,,,,1643.7849380999978,1643.8039606999955,1643.8039606999955,1643.8039606999955,1643.8039606999955,1643.8039606999955,1643.8039606999955,1647.255844600004,['l'],1,[3.4455237000074703],[None],1647.2566178000125,1647.2700933000015,1647.2700933000015,1647.2700933000015,1649.2703452999995,5,1.998912000010023,5,1.998912000010023,,,,Sub40_NB,001,2026-01-20_09h57.08.048,recognitionstage,,2025.1.1,59.93392883262825,2026-01-20 09h59.42.538384 +0530,
,,,7,7,0,21,frames\Vid21_BB_T.png,frames\Vid21_L.png,['r'],1,[4.089582900021924],[None],5,1.0479515999904834,,,,,0,7,7,20,1649.303743299999,,22,Male,Right handed,Normal,,,,,,,,,,,,,,,,,,,,,,,,,,,,,,,,,,,,,,,,1649.297502100002,1649.303743299999,1649.303743299999,1649.303743299999,1649.303743299999,1649.303743299999,1649.303743299999,1653.4057991000009,['r'],1,[4.089582900021924],[None],1653.4068735000037,1653.4203784000129,1653.4203784000129,1653.4203784000129,1654.470936800004,5,1.0479515999904834,5,1.0479515999904834,,,,Sub40_NB,001,2026-01-20_09h57.08.048,recognitionstage,,2025.1.1,59.93392883262825,2026-01-20 09h59.42.538384 +0530,
,,,8,8,0,35,frames\Vid35_EM_T.png,frames\Vid35_L.png,['l'],1,[4.800582800002303],[None],5,1.3316992000036407,,,,,0,8,8,34,1654.5208263999957,,22,Male,Right handed,Normal,,,,,,,,,,,,,,,,,,,,,,,,,,,,,,,,,,,,,,,,1654.4982528999972,1654.5208263999957,1654.5208263999957,1654.5208263999957,1654.5208263999957,1654.5208263999957,1654.5208263999957,1659.3219906000013,['l'],1,[4.800582800002303],[None],1659.322934099997,1659.3374978000065,1659.3374978000065,1659.3374978000065,1660.6718980000005,5,1.3316992000036407,5,1.3316992000036407,,,,Sub40_NB,001,2026-01-20_09h57.08.048,recognitionstage,,2025.1.1,59.93392883262825,2026-01-20 09h59.42.538384 +0530,
,,,9,9,0,24,frames\Vid24_BB_T.png,frames\Vid24_L.png,['r'],1,[2.785083999973722],[None],5,1.13002900002175,,,,,0,9,9,23,1660.7203113000141,,22,Male,Right handed,Normal,,,,,,,,,,,,,,,,,,,,,,,,,,,,,,,,,,,,,,,,1660.7000498000125,1660.7203113000141,1660.7203113000141,1660.7203113000141,1660.7203113000141,1660.7203113000141,1660.7203113000141,1663.5067081000016,['r'],1,[2.785083999973722],[None],1663.5079343999969,1663.5354036000208,1663.5354036000208,1663.5354036000208,1664.6550514000119,5,1.13002900002175,5,1.13002900002175,,,,Sub40_NB,001,2026-01-20_09h57.08.048,recognitionstage,,2025.1.1,59.93392883262825,2026-01-20 09h59.42.538384 +0530,
,,,10,10,0,20,frames\Vid20_EM_T.png,frames\Vid20_L.png,['l'],1,[2.138208099990152],[None],5,1.447643399995286,,,,,0,10,10,19,1664.6870779000164,,22,Male,Right handed,Normal,,,,,,,,,,,,,,,,,,,,,,,,,,,,,,,,,,,,,,,,1664.6760879000067,1664.6870779000164,1664.6870779000164,1664.6870779000164,1664.6870779000164,1664.6870779000164,1664.6870779000164,1666.8396028999996,['l'],1,[2.138208099990152],[None],1666.8406423999986,1666.8686948000104,1666.8686948000104,1666.8686948000104,1668.3523830000195,5,1.447643399995286,5,1.447643399995286,,,,Sub40_NB,001,2026-01-20_09h57.08.048,recognitionstage,,2025.1.1,59.93392883262825,2026-01-20 09h59.42.538384 +0530,
,,,11,11,0,32,frames\Vid32_EM_T.png,frames\Vid32_L.png,['l'],1,[3.174828000017442],[None],5,0.9144118999829516,,,,,0,11,11,31,1668.3864879000175,,22,Male,Right handed,Normal,,,,,,,,,,,,,,,,,,,,,,,,,,,,,,,,,,,,,,,,1668.3808720000088,1668.3864879000175,1668.3864879000175,1668.3864879000175,1668.3864879000175,1668.3864879000175,1668.3864879000175,1671.572596300015,['l'],1,[3.174828000017442],[None],1671.573274800001,1671.5866744999948,1671.5866744999948,1671.5866744999948,1672.5047992000182,5,0.9144118999829516,5,0.9144118999829516,,,,Sub40_NB,001,2026-01-20_09h57.08.048,recognitionstage,,2025.1.1,59.93392883262825,2026-01-20 09h59.42.538384 +0530,
,,,12,12,0,2,frames\Vid2_BB_T.png,frames\Vid2_L.png,['r'],1,[2.9257180000131484],[None],5,0.8147773000237066,,,,,0,12,12,1,1672.5716432000045,,22,Male,Right handed,Normal,,,,,,,,,,,,,,,,,,,,,,,,,,,,,,,,,,,,,,,,1672.560441300011,1672.5716432000045,1672.5716432000045,1672.5716432000045,1672.5716432000045,1672.5716432000045,1672.5716432000045,1675.505846200016,['r'],1,[2.9257180000131484],[None],1675.5070434999943,1675.5209886000084,1675.5209886000084,1675.5209886000084,1676.3372976999963,5,0.8147773000237066,5,0.8147773000237066,,,,Sub40_NB,001,2026-01-20_09h57.08.048,recognitionstage,,2025.1.1,59.93392883262825,2026-01-20 09h59.42.538384 +0530,
,,,13,13,0,1,frames\Vid1_EM_T.png,frames\Vid1_L.png,['l'],1,[12.073028800019529],[None],2,2.4131219999981113,,,,,0,13,13,0,1676.4243368000025,,22,Male,Right handed,Normal,,,,,,,,,,,,,,,,,,,,,,,,,,,,,,,,,,,,,,,,1676.4066584999964,1676.4243368000025,1676.4243368000025,1676.4243368000025,1676.4243368000025,1676.4243368000025,1676.4243368000025,1688.506609300006,['l'],1,[12.073028800019529],[None],1688.5077552000002,1688.5200931,1688.5200931,1688.5200931,1690.9379539999936,2,2.4131219999981113,2,2.4131219999981113,,,,Sub40_NB,001,2026-01-20_09h57.08.048,recognitionstage,,2025.1.1,59.93392883262825,2026-01-20 09h59.42.538384 +0530,
,,,14,14,0,3,frames\Vid3_BB_T.png,frames\Vid3_L.png,['l'],1,[4.106088700005785],[None],5,1.546886700001778,,,,,0,14,14,2,1691.0072214000102,,22,Male,Right handed,Normal,,,,,,,,,,,,,,,,,,,,,,,,,,,,,,,,,,,,,,,,1690.9936120000202,1691.0072214000102,1691.0072214000102,1691.0072214000102,1691.0072214000102,1691.0072214000102,1691.0072214000102,1695.123383099999,['l'],1,[4.106088700005785],[None],1695.1242471000005,1695.1367176000203,1695.1367176000203,1695.1367176000203,1696.6888861000189,5,1.546886700001778,5,1.546886700001778,,,,Sub40_NB,001,2026-01-20_09h57.08.048,recognitionstage,,2025.1.1,59.93392883262825,2026-01-20 09h59.42.538384 +0530,
,,,15,15,0,8,frames\Vid8_BB_T.png,frames\Vid8_L.png,['l'],1,[8.52474059999804],[None],3,1.6646123999962583,,,,,0,15,15,7,1696.7566837000195,,22,Male,Right handed,Normal,,,,,,,,,,,,,,,,,,,,,,,,,,,,,,,,,,,,,,,,1696.7412374000123,1696.7566837000195,1696.7566837000195,1696.7566837000195,1696.7566837000195,1696.7566837000195,1696.7566837000195,1705.2889306000143,['l'],1,[8.52474059999804],[None],1705.2898657000042,1705.3040967000125,1705.3040967000125,1705.3040967000125,1706.9713701000146,3,1.6646123999962583,3,1.6646123999962583,,,,Sub40_NB,001,2026-01-20_09h57.08.048,recognitionstage,,2025.1.1,59.93392883262825,2026-01-20 09h59.42.538384 +0530,
,,,16,16,0,31,frames\Vid31_EM_T.png,frames\Vid31_L.png,['l'],1,[2.2901136000000406],[None],5,1.0313205000129528,,,,,0,16,16,30,1707.0232075999957,,22,Male,Right handed,Normal,,,,,,,,,,,,,,,,,,,,,,,,,,,,,,,,,,,,,,,,1706.9992119999952,1707.0232075999957,1707.0232075999957,1707.0232075999957,1707.0232075999957,1707.0232075999957,1707.0232075999957,1709.3224656000093,['l'],1,[2.2901136000000406],[None],1709.323542500002,1709.3371224000002,1709.3371224000002,1709.3371224000002,1710.3714659000107,5,1.0313205000129528,5,1.0313205000129528,,,,Sub40_NB,001,2026-01-20_09h57.08.048,recognitionstage,,2025.1.1,59.93392883262825,2026-01-20 09h59.42.538384 +0530,
,,,17,17,0,7,frames\Vid7_EM_T.png,frames\Vid7_L.png,['r'],0,[6.731521000008797],[None],3,1.5324079999991227,,,,,0,17,17,6,1710.4377576000115,,22,Male,Right handed,Normal,,,,,,,,,,,,,,,,,,,,,,,,,,,,,,,,,,,,,,,,1710.4301453999942,1710.4377576000115,1710.4377576000115,1710.4377576000115,1710.4377576000115,1710.4377576000115,1710.4377576000115,1717.1715162000037,['r'],0,[6.731521000008797],[None],1717.1723128000158,1717.1871355000185,1717.1871355000185,1717.1871355000185,1718.7212193000014,3,1.5324079999991227,3,1.5324079999991227,,,,Sub40_NB,001,2026-01-20_09h57.08.048,recognitionstage,,2025.1.1,59.93392883262825,2026-01-20 09h59.42.538384 +0530,
,,,18,18,0,38,frames\Vid38_EM_T.png,frames\Vid38_L.png,['r'],1,[3.6850228999974206],[None],5,1.3143969999800902,,,,,0,18,18,37,1718.7563313000137,,22,Male,Right handed,Normal,,,,,,,,,,,,,,,,,,,,,,,,,,,,,,,,,,,,,,,,1718.7464925000095,1718.7563313000137,1718.7563313000137,1718.7563313000137,1718.7563313000137,1718.7563313000137,1718.7563313000137,1722.4560969000158,['r'],1,[3.6850228999974206],[None],1722.457298399997,1722.47064460002,1722.47064460002,1722.47064460002,1723.7877307000163,5,1.3143969999800902,5,1.3143969999800902,,,,Sub40_NB,001,2026-01-20_09h57.08.048,recognitionstage,,2025.1.1,59.93392883262825,2026-01-20 09h59.42.538384 +0530,
,,,19,19,0,6,frames\Vid6_BB_T.png,frames\Vid6_L.png,['r'],1,[5.570892999996431],[None],4,1.2456857999786735,,,,,0,19,19,5,1723.854436900001,,22,Male,Right handed,Normal,,,,,,,,,,,,,,,,,,,,,,,,,,,,,,,,,,,,,,,,1723.8469189000025,1723.854436900001,1723.854436900001,1723.854436900001,1723.854436900001,1723.854436900001,1723.854436900001,1729.441350900015,['r'],1,[5.570892999996431],[None],1729.4435764999944,1729.4683095999935,1729.4683095999935,1729.4683095999935,1730.7039025000122,4,1.2456857999786735,4,1.2456857999786735,,,,Sub40_NB,001,2026-01-20_09h57.08.048,recognitionstage,,2025.1.1,59.93392883262825,2026-01-20 09h59.42.538384 +0530,
,,,20,20,0,36,frames\Vid36_BB_T.png,frames\Vid36_L.png,['r'],1,[3.589240500004962],[None],5,1.198490300012054,,,,,0,20,20,35,1730.7400855000014,,22,Male,Right handed,Normal,,,,,,,,,,,,,,,,,,,,,,,,,,,,,,,,,,,,,,,,1730.7303625000059,1730.7400855000014,1730.7400855000014,1730.7400855000014,1730.7400855000014,1730.7400855000014,1730.7400855000014,1734.3390966000152,['r'],1,[3.589240500004962],[None],1734.3402430000133,1734.3538427000167,1734.3538427000167,1734.3538427000167,1735.5542352000193,5,1.198490300012054,5,1.198490300012054,,,,Sub40_NB,001,2026-01-20_09h57.08.048,recognitionstage,,2025.1.1,59.93392883262825,2026-01-20 09h59.42.538384 +0530,
,,,21,21,0,5,frames\Vid5_EM_T.png,frames\Vid5_L.png,['l'],0,[6.980738499987638],[None],3,1.5988338000024669,,,,,0,21,21,4,1735.6044760000077,,22,Male,Right handed,Normal,,,,,,,,,,,,,,,,,,,,,,,,,,,,,,,,,,,,,,,,1735.597232900007,1735.6044760000077,1735.6044760000077,1735.6044760000077,1735.6044760000077,1735.6044760000077,1735.6044760000077,1742.5892590000003,['l'],0,[6.980738499987638],[None],1742.5901769000047,1742.603414800018,1742.603414800018,1742.603414800018,1744.2040064000175,3,1.5988338000024669,3,1.5988338000024669,,,,Sub40_NB,001,2026-01-20_09h57.08.048,recognitionstage,,2025.1.1,59.93392883262825,2026-01-20 09h59.42.538384 +0530,
,,,22,22,0,13,frames\Vid13_BB_T.png,frames\Vid13_L.png,['l'],1,[6.840731700009201],[None],3,1.748542199988151,,,,,0,22,22,12,1744.2725382999924,,22,Male,Right handed,Normal,,,,,,,,,,,,,,,,,,,,,,,,,,,,,,,,,,,,,,,,1744.2522973000014,1744.2725382999924,1744.2725382999924,1744.2725382999924,1744.2725382999924,1744.2725382999924,1744.2725382999924,1751.1225414999935,['l'],1,[6.840731700009201],[None],1751.123421700002,1751.1367015000142,1751.1367015000142,1751.1367015000142,1752.8878370000166,3,1.748542199988151,3,1.748542199988151,,,,Sub40_NB,001,2026-01-20_09h57.08.048,recognitionstage,,2025.1.1,59.93392883262825,2026-01-20 09h59.42.538384 +0530,
,,,23,23,0,28,frames\Vid28_EM_T.png,frames\Vid28_L.png,['l'],1,[2.3025180000113323],[None],5,1.114662399981171,,,,,0,23,23,27,1752.9228038,,22,Male,Right handed,Normal,,,,,,,,,,,,,,,,,,,,,,,,,,,,,,,,,,,,,,,,1752.912509899994,1752.9228038,1752.9228038,1752.9228038,1752.9228038,1752.9228038,1752.9228038,1755.239502100012,['l'],1,[2.3025180000113323],[None],1755.24049690002,1755.2538684000028,1755.2538684000028,1755.2538684000028,1756.3710009000206,5,1.114662399981171,5,1.114662399981171,,,,Sub40_NB,001,2026-01-20_09h57.08.048,recognitionstage,,2025.1.1,59.93392883262825,2026-01-20 09h59.42.538384 +0530,
,,,24,24,0,33,frames\Vid33_BB_T.png,frames\Vid33_L.png,['r'],1,[6.28611399998772],[None],4,1.0820311999996193,,,,,0,24,24,32,1756.4034159000148,,22,Male,Right handed,Normal,,,,,,,,,,,,,,,,,,,,,,,,,,,,,,,,,,,,,,,,1756.395382799994,1756.4034159000148,1756.4034159000148,1756.4034159000148,1756.4034159000148,1756.4034159000148,1756.4034159000148,1762.7051743000047,['r'],1,[6.28611399998772],[None],1762.706183900009,1762.7203210000007,1762.7203210000007,1762.7203210000007,1763.804078999994,4,1.0820311999996193,4,1.0820311999996193,,,,Sub40_NB,001,2026-01-20_09h57.08.048,recognitionstage,,2025.1.1,59.93392883262825,2026-01-20 09h59.42.538384 +0530,
,,,25,25,0,19,frames\Vid19_BB_T.png,frames\Vid19_L.png,['l'],1,[6.588350300007733],[None],2,1.1657817999948747,,,,,0,25,25,18,1763.8368508999993,,22,Male,Right handed,Normal,,,,,,,,,,,,,,,,,,,,,,,,,,,,,,,,,,,,,,,,1763.8279772000096,1763.8368508999993,1763.8368508999993,1763.8368508999993,1763.8368508999993,1763.8368508999993,1763.8368508999993,1770.4381051000091,['l'],1,[6.588350300007733],[None],1770.4388929000124,1770.4540535999986,1770.4540535999986,1770.4540535999986,1771.6216294000042,2,1.1657817999948747,2,1.1657817999948747,,,,Sub40_NB,001,2026-01-20_09h57.08.048,recognitionstage,,2025.1.1,59.93392883262825,2026-01-20 09h59.42.538384 +0530,
,,,26,26,0,39,frames\Vid39_BB_T.png,frames\Vid39_L.png,['r'],1,[3.8195377999800257],[None],5,1.4821477999794297,,,,,0,26,26,38,1771.6537443000125,,22,Male,Right handed,Normal,,,,,,,,,,,,,,,,,,,,,,,,,,,,,,,,,,,,,,,,1771.6471987999976,1771.6537443000125,1771.6537443000125,1771.6537443000125,1771.6537443000125,1771.6537443000125,1771.6537443000125,1775.4883553000109,['r'],1,[3.8195377999800257],[None],1775.489249700011,1775.5045984000026,1775.5045984000026,1775.5045984000026,1776.9875054000004,5,1.4821477999794297,5,1.4821477999794297,,,,Sub40_NB,001,2026-01-20_09h57.08.048,recognitionstage,,2025.1.1,59.93392883262825,2026-01-20 09h59.42.538384 +0530,
,,,27,27,0,29,frames\Vid29_BB_T.png,frames\Vid29_L.png,['r'],1,[5.661192600004142],[None],3,1.3658088999800384,,,,,0,27,27,28,1777.020201300009,,22,Male,Right handed,Normal,,,,,,,,,,,,,,,,,,,,,,,,,,,,,,,,,,,,,,,,1777.0140266999952,1777.020201300009,1777.020201300009,1777.020201300009,1777.020201300009,1777.020201300009,1777.020201300009,1782.688565999997,['r'],1,[5.661192600004142],[None],1782.6895126000163,1782.7040587000083,1782.7040587000083,1782.7040587000083,1784.071187499998,3,1.3658088999800384,3,1.3658088999800384,,,,Sub40_NB,001,2026-01-20_09h57.08.048,recognitionstage,,2025.1.1,59.93392883262825,2026-01-20 09h59.42.538384 +0530,
,,,28,28,0,9,frames\Vid9_EM_T.png,frames\Vid9_L.png,['r'],1,[6.719844599982025],[None],3,1.7314072000153828,,,,,0,28,28,8,1784.1374848000123,,22,Male,Right handed,Normal,,,,,,,,,,,,,,,,,,,,,,,,,,,,,,,,,,,,,,,,1784.123025900015,1784.1374848000123,1784.1374848000123,1784.1374848000123,1784.1374848000123,1784.1374848000123,1784.1374848000123,1790.8721164000162,['r'],1,[6.719844599982025],[None],1790.8729822000023,1790.887363100017,1790.887363100017,1790.887363100017,1792.6209188000066,3,1.7314072000153828,3,1.7314072000153828,,,,Sub40_NB,001,2026-01-20_09h57.08.048,recognitionstage,,2025.1.1,59.93392883262825,2026-01-20 09h59.42.538384 +0530,
,,,29,29,0,10,frames\Vid10_BB_T.png,frames\Vid10_L.png,['l'],1,[3.9109724999871105],[None],5,1.2138629999826662,,,,,0,29,29,9,1792.6905342999962,,22,Male,Right handed,Normal,,,,,,,,,,,,,,,,,,,,,,,,,,,,,,,,,,,,,,,,1792.6774225000117,1792.6905342999962,1792.6905342999962,1792.6905342999962,1792.6905342999962,1792.6905342999962,1792.6905342999962,1796.6064951000153,['l'],1,[3.9109724999871105],[None],1796.6076968999987,1796.6356477999943,1796.6356477999943,1796.6356477999943,1797.8379455000104,5,1.2138629999826662,5,1.2138629999826662,,,,Sub40_NB,001,2026-01-20_09h57.08.048,recognitionstage,,2025.1.1,59.93392883262825,2026-01-20 09h59.42.538384 +0530,
,,,30,30,0,30,frames\Vid30_EM_T.png,frames\Vid30_L.png,['l'],1,[6.063834800006589],[None],4,1.2318598999991082,,,,,0,30,30,29,1797.8733641,,22,Male,Right handed,Normal,,,,,,,,,,,,,,,,,,,,,,,,,,,,,,,,,,,,,,,,1797.8631121999933,1797.8733641,1797.8733641,1797.8733641,1797.8733641,1797.8733641,1797.8733641,1803.9385322000016,['l'],1,[6.063834800006589],[None],1803.9394062999927,1803.953751299996,1803.953751299996,1803.953751299996,1805.1880848,4,1.2318598999991082,4,1.2318598999991082,,,,Sub40_NB,001,2026-01-20_09h57.08.048,recognitionstage,,2025.1.1,59.93392883262825,2026-01-20 09h59.42.538384 +0530,
,,,31,31,0,4,frames\Vid4_EM_T.png,frames\Vid4_L.png,['l'],0,[8.914504700020188],[None],2,2.0129727000021376,,,,,0,31,31,3,1805.2711175000004,,22,Male,Right handed,Normal,,,,,,,,,,,,,,,,,,,,,,,,,,,,,,,,,,,,,,,,1805.2486923999968,1805.2711175000004,1805.2711175000004,1805.2711175000004,1805.2711175000004,1805.2711175000004,1805.2711175000004,1814.1903805000184,['l'],0,[8.914504700020188],[None],1814.1918888000073,1814.2033150999923,1814.2033150999923,1814.2033150999923,1816.2210034000163,2,2.0129727000021376,2,2.0129727000021376,,,,Sub40_NB,001,2026-01-20_09h57.08.048,recognitionstage,,2025.1.1,59.93392883262825,2026-01-20 09h59.42.538384 +0530,
,,,32,32,0,12,frames\Vid12_EM_T.png,frames\Vid12_L.png,['r'],1,[2.710164399992209],[None],5,1.2295095000008587,,,,,0,32,32,11,1816.3075231999974,,22,Male,Right handed,Normal,,,,,,,,,,,,,,,,,,,,,,,,,,,,,,,,,,,,,,,,1816.2845569000056,1816.3075231999974,1816.3075231999974,1816.3075231999974,1816.3075231999974,1816.3075231999974,1816.3075231999974,1819.0244266999944,['r'],1,[2.710164399992209],[None],1819.0254934999975,1819.0369614000083,1819.0369614000083,1819.0369614000083,1820.270749200019,5,1.2295095000008587,5,1.2295095000008587,,,,Sub40_NB,001,2026-01-20_09h57.08.048,recognitionstage,,2025.1.1,59.93392883262825,2026-01-20 09h59.42.538384 +0530,
,,,33,33,0,14,frames\Vid14_BB_T.png,frames\Vid14_L.png,['l'],1,[2.0441596999880858],[None],5,2.0632277999829967,,,,,0,33,33,13,1820.3572635000164,,22,Male,Right handed,Normal,,,,,,,,,,,,,,,,,,,,,,,,,,,,,,,,,,,,,,,,1820.3470487000013,1820.3572635000164,1820.3572635000164,1820.3572635000164,1820.3572635000164,1820.3572635000164,1820.3572635000164,1822.407437899994,['l'],1,[2.0441596999880858],[None],1822.4087997000024,1822.420237800019,1822.420237800019,1822.420237800019,1824.4874233000155,5,2.0632277999829967,5,2.0632277999829967,,,,Sub40_NB,001,2026-01-20_09h57.08.048,recognitionstage,,2025.1.1,59.93392883262825,2026-01-20 09h59.42.538384 +0530,
,,,34,34,0,22,frames\Vid22_EM_T.png,frames\Vid22_L.png,['r'],1,[2.4462166000157595],[None],5,1.3484016000002157,,,,,0,34,34,21,1824.5229867000016,,22,Male,Right handed,Normal,,,,,,,,,,,,,,,,,,,,,,,,,,,,,,,,,,,,,,,,1824.5143166000198,1824.5229867000016,1824.5229867000016,1824.5229867000016,1824.5229867000016,1824.5229867000016,1824.5229867000016,1826.971970100014,['r'],1,[2.4462166000157595],[None],1826.972691700008,1826.9868875000102,1826.9868875000102,1826.9868875000102,1828.3383142999955,5,1.3484016000002157,5,1.3484016000002157,,,,Sub40_NB,001,2026-01-20_09h57.08.048,recognitionstage,,2025.1.1,59.93392883262825,2026-01-20 09h59.42.538384 +0530,
,,,35,35,0,40,frames\Vid40_EM_T.png,frames\Vid40_L.png,['l'],1,[7.84703730000183],[None],5,1.4303805000090506,,,,,0,35,35,39,1828.3704111000116,,22,Male,Right handed,Normal,,,,,,,,,,,,,,,,,,,,,,,,,,,,,,,,,,,,,,,,1828.3605782999948,1828.3704111000116,1828.3704111000116,1828.3704111000116,1828.3704111000116,1828.3704111000116,1828.3704111000116,1836.2231988999993,['l'],1,[7.84703730000183],[None],1836.2243735000084,1836.2368614000152,1836.2368614000152,1836.2368614000152,1837.6713399,5,1.4303805000090506,5,1.4303805000090506,,,,Sub40_NB,001,2026-01-20_09h57.08.048,recognitionstage,,2025.1.1,59.93392883262825,2026-01-20 09h59.42.538384 +0530,
,,,36,36,0,11,frames\Vid11_EM_T.png,frames\Vid11_L.png,['l'],1,[2.3672163000155706],[None],5,0.9314283000130672,,,,,0,36,36,10,1837.7540542000206,,22,Male,Right handed,Normal,,,,,,,,,,,,,,,,,,,,,,,,,,,,,,,,,,,,,,,,1837.7324264000054,1837.7540542000206,1837.7540542000206,1837.7540542000206,1837.7540542000206,1837.7540542000206,1837.7540542000206,1840.122365200019,['l'],1,[2.3672163000155706],[None],1840.1232085000083,1840.1375241999922,1840.1375241999922,1840.1375241999922,1841.0714469999948,5,0.9314283000130672,5,0.9314283000130672,,,,Sub40_NB,001,2026-01-20_09h57.08.048,recognitionstage,,2025.1.1,59.93392883262825,2026-01-20 09h59.42.538384 +0530,
,,,37,37,0,15,frames\Vid15_BB_T.png,frames\Vid15_L.png,['r'],1,[7.6763268999930006],[None],5,1.4973000999889337,,,,,0,37,37,14,1841.1571629999962,,22,Male,Right handed,Normal,,,,,,,,,,,,,,,,,,,,,,,,,,,,,,,,,,,,,,,,1841.1357459000137,1841.1571629999962,1841.1571629999962,1841.1571629999962,1841.1571629999962,1841.1571629999962,1841.1571629999962,1848.8397512999945,['r'],1,[7.6763268999930006],[None],1848.8407400000142,1848.8685378000082,1848.8685378000082,1848.8685378000082,1850.3550800000085,5,1.4973000999889337,5,1.4973000999889337,,,,Sub40_NB,001,2026-01-20_09h57.08.048,recognitionstage,,2025.1.1,59.93392883262825,2026-01-20 09h59.42.538384 +0530,
,,,38,38,0,18,frames\Vid18_EM_T.png,frames\Vid18_L.png,['l'],1,[2.5713352999882773],[None],4,1.0967204000044148,,,,,0,38,38,17,1850.389987500006,,22,Male,Right handed,Normal,,,,,,,,,,,,,,,,,,,,,,,,,,,,,,,,,,,,,,,,1850.3807731000124,1850.389987500006,1850.389987500006,1850.389987500006,1850.389987500006,1850.389987500006,1850.389987500006,1852.9735501999967,['l'],1,[2.5713352999882773],[None],1852.9748332000163,1852.9866062999936,1852.9866062999936,1852.9866062999936,1854.0878202000167,4,1.0967204000044148,4,1.0967204000044148,,,,Sub40_NB,001,2026-01-20_09h57.08.048,recognitionstage,,2025.1.1,59.93392883262825,2026-01-20 09h59.42.538384 +0530,
,,,39,39,0,34,frames\Vid34_BB_T.png,frames\Vid34_L.png,['r'],1,[5.856780900008744],[None],4,1.4820470999984536,,,,,0,39,39,33,1854.1204377000104,,22,Male,Right handed,Normal,,,,,,,,,,,,,,,,,,,,,,,,,,,,,,,,,,,,,,,,1854.112465000013,1854.1204377000104,1854.1204377000104,1854.1204377000104,1854.1204377000104,1854.1204377000104,1854.1204377000104,1859.9886019999976,['r'],1,[5.856780900008744],[None],1859.9894987000152,1860.003694300016,1860.003694300016,1860.003694300016,1861.4880109000078,4,1.4820470999984536,4,1.4820470999984536,,,,Sub40_NB,001,2026-01-20_09h57.08.048,recognitionstage,,2025.1.1,59.93392883262825,2026-01-20 09h59.42.538384 +0530,
,,,,,,,,,,,,,,,,,,,,,,,,,22,Male,Right handed,Normal,,,,,,,,,,,,,,,,,,,,,,,,,,,,,,,,,,,,,,,,,,,,,,,,,,,,,,,,,,,,,1861.4881271000195,1861.5044434000156,1861.5044434000156,,,,,,,,,
