path,duration,is_repeat,thisN,thisTrialN,thisRepN,movie_id,target_img,lure_img,resp.keys,resp.corr,resp.rt,resp.duration,conf_radio.response,conf_radio.rt,movie.thisRepN,movie.thisTrialN,movie.thisN,movie.thisIndex,recogloop.thisRepN,recogloop.thisTrialN,recogloop.thisN,recogloop.thisIndex,thisRow.t,notes,age,gender,handedness,vision,caffeine_2h,alcohol_smoke_12h,demographics.started,demographics.stopped,Instructions.started,text1.started,key_resp.started,Instructions.stopped,key_resp.keys,key_resp.rt,key_resp.duration,instruction_2.started,text2.started,key_resp_2.started,instruction_2.stopped,key_resp_2.keys,key_resp_2.rt,key_resp_2.duration,Videos.started,movie_2.started,vigilance_resp.started,movie_2.stopped,Videos.stopped,movie.vigilance_resp.keys,vigilance_pressed,vigilance_correct,ISI.started,text.started,text.stopped,ISI.stopped,movie.vigilance_resp.rt,movie.vigilance_resp.duration,recognition.started,text_4.started,key_resp_3.started,recognition.stopped,key_resp_3.keys,key_resp_3.rt,key_resp_3.duration,recognition_task.started,leftimage.started,rightimage.started,resp.started,frames_question.started,right_label.started,left_label.started,recognition_task.stopped,recogloop.resp.keys,recogloop.resp.corr,recogloop.resp.rt,recogloop.resp.duration,confidence.started,conf_text.started,conf_radio.started,conf_label.started,confidence.stopped,recogloop.conf_radio.response,recogloop.conf_radio.rt,confidence,confidence_rt,thank_you.started,text_6.started,key_resp_4.started,thank_you.stopped,key_resp_4.keys,key_resp_4.rt,key_resp_4.duration,participant,session,date,expName,expVersion,psychopyVersion,frameRate,expStart,...105
,,,,,,,,,,,,,,,,,,,,,,,,,25,Female,Right handed,Corrected to normal,Caffeine consumed in last 2 hours?,Alcohol or smoking in last 12 hours?,0.020627299905754626,0.02516949991695583,,,,,,,,,,,,,,,,,,,,,,,,,,,,,,,,,,,,,,,,,,,,,,,,,,,,,,,,,,,,,,,,sub52_NB,001,2026-01-26_16h01.01.670,recognitionstage,,2025.1.1,60.04581495615659,2026-01-26 16h03.04.781577 +0530,
,,,,,,,,,,,,,,,,,,,,,,,,,25,Female,Right handed,Corrected to normal,,,,,0.025191199965775013,0.0396619999082759,0.0396619999082759,10.625440599978901,space,10.584407599992119,None,,,,,,,,,,,,,,,,,,,,,,,,,,,,,,,,,,,,,,,,,,,,,,,,,,,,,,,,,sub52_NB,001,2026-01-26_16h01.01.670,recognitionstage,,2025.1.1,60.04581495615659,2026-01-26 16h03.04.781577 +0530,
,,,,,,,,,,,,,,,,,,,,,,,,,25,Female,Right handed,Corrected to normal,,,,,,,,,,,,10.625507999910042,10.640925499959849,10.640925499959849,20.79102099989541,space,10.143112999969162,None,,,,,,,,,,,,,,,,,,,,,,,,,,,,,,,,,,,,,,,,,,,,,,,,,,sub52_NB,001,2026-01-26_16h01.01.670,recognitionstage,,2025.1.1,60.04581495615659,2026-01-26 16h03.04.781577 +0530,
Trimmed_videos/natural_16.mp4,35,0,44,44,0,,,,,,,,,,0,44,44,17,,,,,1505.4389846998965,,25,Female,Right handed,Corrected to normal,,,,,,,,,,,,,,,,,,,1505.3933344999095,1505.4389846998965,1505.4389846998965,1540.8712729999097,1540.7273342999397,None,0,1,1540.8634713999927,1540.8712729999097,1543.3730665999465,1543.3580361999338,1.7009606999345124,None,1543.3581006999593,1543.3730665999465,1543.3730665999465,1574.0073178999592,space,30.626982099958695,None,,,,,,,,,,,,,,,,,,,,,,,,,,,,,sub52_NB,001,2026-01-26_16h01.01.670,recognitionstage,,2025.1.1,60.04581495615659,2026-01-26 16h03.04.781577 +0530,
,,,0,0,0,35,frames\Vid35_EM_T.png,frames\Vid35_L.png,['r'],1,[7.250057900091633],[None],5,7.229668000014499,,,,,0,0,0,34,1574.0379879999673,,25,Female,Right handed,Corrected to normal,,,,,,,,,,,,,,,,,,,,,,,,,,,,,,,,,,,,,,,,1574.023846099968,1574.0379879999673,1574.0379879999673,1574.0379879999673,1574.0379879999673,1574.0379879999673,1574.0379879999673,1581.2923951999983,['r'],1,[7.250057900091633],[None],1581.2936757999705,1581.3207659999607,1581.3207659999607,1581.3207659999607,1588.5406977999955,5,7.229668000014499,5,7.229668000014499,,,,,,,,sub52_NB,001,2026-01-26_16h01.01.670,recognitionstage,,2025.1.1,60.04581495615659,2026-01-26 16h03.04.781577 +0530,
,,,1,1,0,27,frames\Vid27_BB_T.png,frames\Vid27_L.png,['r'],1,[3.1646264999872074],[None],5,1.6814008000073954,,,,,0,1,1,26,1588.5714846999617,,25,Female,Right handed,Corrected to normal,,,,,,,,,,,,,,,,,,,,,,,,,,,,,,,,,,,,,,,,1588.553884099936,1588.5714846999617,1588.5714846999617,1588.5714846999617,1588.5714846999617,1588.5714846999617,1588.5714846999617,1591.7414566999068,['r'],1,[3.1646264999872074],[None],1591.7425593999214,1591.756284700008,1591.756284700008,1591.756284700008,1593.4406422999455,5,1.6814008000073954,5,1.6814008000073954,,,,,,,,sub52_NB,001,2026-01-26_16h01.01.670,recognitionstage,,2025.1.1,60.04581495615659,2026-01-26 16h03.04.781577 +0530,
,,,2,2,0,26,frames\Vid26_EM_T.png,frames\Vid26_L.png,['r'],1,[5.287748500006273],[None],5,2.2146803999785334,,,,,0,2,2,25,1593.4724857999245,,25,Female,Right handed,Corrected to normal,,,,,,,,,,,,,,,,,,,,,,,,,,,,,,,,,,,,,,,,1593.4546392000047,1593.4724857999245,1593.4724857999245,1593.4724857999245,1593.4724857999245,1593.4724857999245,1593.4724857999245,1598.7749550999142,['r'],1,[5.287748500006273],[None],1598.776071399916,1598.7895400999114,1598.7895400999114,1598.7895400999114,1601.0070159999887,5,2.2146803999785334,5,2.2146803999785334,,,,,,,,sub52_NB,001,2026-01-26_16h01.01.670,recognitionstage,,2025.1.1,60.04581495615659,2026-01-26 16h03.04.781577 +0530,
,,,3,3,0,12,frames\Vid12_EM_T.png,frames\Vid12_L.png,['r'],1,[7.590463100001216],[None],5,1.1649953000014648,,,,,0,3,3,11,1601.0736726999748,,25,Female,Right handed,Corrected to normal,,,,,,,,,,,,,,,,,,,,,,,,,,,,,,,,,,,,,,,,1601.051965199993,1601.0736726999748,1601.0736726999748,1601.0736726999748,1601.0736726999748,1601.0736726999748,1601.0736726999748,1608.6741900999332,['r'],1,[7.590463100001216],[None],1608.675080499961,1608.6895525999134,1608.6895525999134,1608.6895525999134,1609.8573055999586,5,1.1649953000014648,5,1.1649953000014648,,,,,,,,sub52_NB,001,2026-01-26_16h01.01.670,recognitionstage,,2025.1.1,60.04581495615659,2026-01-26 16h03.04.781577 +0530,
,,,4,4,0,10,frames\Vid10_BB_T.png,frames\Vid10_L.png,['r'],1,[7.877643099986017],[None],4,2.180549999931827,,,,,0,4,4,9,1609.9386257999577,,25,Female,Right handed,Corrected to normal,,,,,,,,,,,,,,,,,,,,,,,,,,,,,,,,,,,,,,,,1609.9172655999428,1609.9386257999577,1609.9386257999577,1609.9386257999577,1609.9386257999577,1609.9386257999577,1609.9386257999577,1617.8252973000053,['r'],1,[7.877643099986017],[None],1617.8264801999321,1617.8393234999385,1617.8393234999385,1617.8393234999385,1620.0235912000062,4,2.180549999931827,4,2.180549999931827,,,,,,,,sub52_NB,001,2026-01-26_16h01.01.670,recognitionstage,,2025.1.1,60.04581495615659,2026-01-26 16h03.04.781577 +0530,
,,,5,5,0,25,frames\Vid25_BB_T.png,frames\Vid25_L.png,['r'],0,[13.659778299974278],[None],4,3.0818165000528097,,,,,0,5,5,24,1620.0442389999516,,25,Female,Right handed,Corrected to normal,,,,,,,,,,,,,,,,,,,,,,,,,,,,,,,,,,,,,,,,1620.0334397999104,1620.0442389999516,1620.0442389999516,1620.0442389999516,1620.0442389999516,1620.0442389999516,1620.0442389999516,1633.7081547999987,['r'],0,[13.659778299974278],[None],1633.7089712999295,1633.723389599938,1633.723389599938,1633.723389599938,1636.8065125999274,4,3.0818165000528097,4,3.0818165000528097,,,,,,,,sub52_NB,001,2026-01-26_16h01.01.670,recognitionstage,,2025.1.1,60.04581495615659,2026-01-26 16h03.04.781577 +0530,
,,,6,6,0,15,frames\Vid15_BB_T.png,frames\Vid15_L.png,['l'],1,[4.102487499942072],[None],5,1.6809878000058234,,,,,0,6,6,14,1636.873552899924,,25,Female,Right handed,Corrected to normal,,,,,,,,,,,,,,,,,,,,,,,,,,,,,,,,,,,,,,,,1636.8541216999292,1636.873552899924,1636.873552899924,1636.873552899924,1636.873552899924,1636.873552899924,1636.873552899924,1640.9915885999799,['l'],1,[4.102487499942072],[None],1640.9924787000054,1641.0062327999622,1641.0062327999622,1641.0062327999622,1642.690770199988,5,1.6809878000058234,5,1.6809878000058234,,,,,,,,sub52_NB,001,2026-01-26_16h01.01.670,recognitionstage,,2025.1.1,60.04581495615659,2026-01-26 16h03.04.781577 +0530,
,,,7,7,0,31,frames\Vid31_EM_T.png,frames\Vid31_L.png,['l'],1,[4.178360599908046],[None],5,4.214226000010967,,,,,0,7,7,30,1642.7258432999952,,25,Female,Right handed,Corrected to normal,,,,,,,,,,,,,,,,,,,,,,,,,,,,,,,,,,,,,,,,1642.7026200999971,1642.7258432999952,1642.7258432999952,1642.7258432999952,1642.7258432999952,1642.7258432999952,1642.7258432999952,1646.9091892999131,['l'],1,[4.178360599908046],[None],1646.9104156999383,1646.9378986998927,1646.9378986998927,1646.9378986998927,1651.140222499962,5,4.214226000010967,5,4.214226000010967,,,,,,,,sub52_NB,001,2026-01-26_16h01.01.670,recognitionstage,,2025.1.1,60.04581495615659,2026-01-26 16h03.04.781577 +0530,
,,,8,8,0,40,frames\Vid40_EM_T.png,frames\Vid40_L.png,['r'],1,[17.530119400005788],[None],5,1.3796024000039324,,,,,0,8,8,39,1651.158068699995,,25,Female,Right handed,Corrected to normal,,,,,,,,,,,,,,,,,,,,,,,,,,,,,,,,,,,,,,,,1651.1481425999664,1651.158068699995,1651.158068699995,1651.158068699995,1651.158068699995,1651.158068699995,1651.158068699995,1668.6927139000036,['r'],1,[17.530119400005788],[None],1668.6941526998999,1668.7210483999224,1668.7210483999224,1668.7210483999224,1670.0896520999959,5,1.3796024000039324,5,1.3796024000039324,,,,,,,,sub52_NB,001,2026-01-26_16h01.01.670,recognitionstage,,2025.1.1,60.04581495615659,2026-01-26 16h03.04.781577 +0530,
,,,9,9,0,6,frames\Vid6_BB_T.png,frames\Vid6_L.png,['l'],1,[3.404160700039938],[None],5,1.1485705999657512,,,,,0,9,9,5,1670.1398281999864,,25,Female,Right handed,Corrected to normal,,,,,,,,,,,,,,,,,,,,,,,,,,,,,,,,,,,,,,,,1670.1333256999496,1670.1398281999864,1670.1398281999864,1670.1398281999864,1670.1398281999864,1670.1398281999864,1670.1398281999864,1673.5583883000072,['l'],1,[3.404160700039938],[None],1673.5589396998985,1673.5725476999069,1673.5725476999069,1673.5725476999069,1674.7240942999488,5,1.1485705999657512,5,1.1485705999657512,,,,,,,,sub52_NB,001,2026-01-26_16h01.01.670,recognitionstage,,2025.1.1,60.04581495615659,2026-01-26 16h03.04.781577 +0530,
,,,10,10,0,19,frames\Vid19_BB_T.png,frames\Vid19_L.png,['l'],1,[2.6330865001073107],[None],5,1.6990842000814155,,,,,0,10,10,18,1674.7591044999426,,25,Female,Right handed,Corrected to normal,,,,,,,,,,,,,,,,,,,,,,,,,,,,,,,,,,,,,,,,1674.7368700999068,1674.7591044999426,1674.7591044999426,1674.7591044999426,1674.7591044999426,1674.7591044999426,1674.7591044999426,1677.4082336999709,['l'],1,[2.6330865001073107],[None],1677.4090668999124,1677.4224925999297,1677.4224925999297,1677.4224925999297,1679.1231133999536,5,1.6990842000814155,5,1.6990842000814155,,,,,,,,sub52_NB,001,2026-01-26_16h01.01.670,recognitionstage,,2025.1.1,60.04581495615659,2026-01-26 16h03.04.781577 +0530,
,,,11,11,0,14,frames\Vid14_BB_T.png,frames\Vid14_L.png,['l'],1,[4.201833300059661],[None],5,1.0483562999870628,,,,,0,11,11,13,1679.1903474999126,,25,Female,Right handed,Corrected to normal,,,,,,,,,,,,,,,,,,,,,,,,,,,,,,,,,,,,,,,,1679.1679416999687,1679.1903474999126,1679.1903474999126,1679.1903474999126,1679.1903474999126,1679.1903474999126,1679.1903474999126,1683.4081989999395,['l'],1,[4.201833300059661],[None],1683.4091828999808,1683.422511599958,1683.422511599958,1683.422511599958,1684.4742990999948,5,1.0483562999870628,5,1.0483562999870628,,,,,,,,sub52_NB,001,2026-01-26_16h01.01.670,recognitionstage,,2025.1.1,60.04581495615659,2026-01-26 16h03.04.781577 +0530,
,,,12,12,0,4,frames\Vid4_EM_T.png,frames\Vid4_L.png,['r'],0,[4.209357199957594],[None],5,2.980953500024043,,,,,0,12,12,3,1684.542930800002,,25,Female,Right handed,Corrected to normal,,,,,,,,,,,,,,,,,,,,,,,,,,,,,,,,,,,,,,,,1684.520151799894,1684.542930800002,1684.542930800002,1684.542930800002,1684.542930800002,1684.542930800002,1684.542930800002,1688.7586365999887,['r'],0,[4.209357199957594],[None],1688.7595679999795,1688.772424899973,1688.772424899973,1688.772424899973,1691.7572344999062,5,2.980953500024043,5,2.980953500024043,,,,,,,,sub52_NB,001,2026-01-26_16h01.01.670,recognitionstage,,2025.1.1,60.04581495615659,2026-01-26 16h03.04.781577 +0530,
,,,13,13,0,11,frames\Vid11_EM_T.png,frames\Vid11_L.png,['l'],1,[2.6384957000846043],[None],5,1.0147873000241816,,,,,0,13,13,10,1691.809666999965,,25,Female,Right handed,Corrected to normal,,,,,,,,,,,,,,,,,,,,,,,,,,,,,,,,,,,,,,,,1691.7994258999825,1691.809666999965,1691.809666999965,1691.809666999965,1691.809666999965,1691.809666999965,1691.809666999965,1694.45875599992,['l'],1,[2.6384957000846043],[None],1694.459711899981,1694.472472299938,1694.472472299938,1694.472472299938,1695.4908758999081,5,1.0147873000241816,5,1.0147873000241816,,,,,,,,sub52_NB,001,2026-01-26_16h01.01.670,recognitionstage,,2025.1.1,60.04581495615659,2026-01-26 16h03.04.781577 +0530,
,,,14,14,0,24,frames\Vid24_BB_T.png,frames\Vid24_L.png,['l'],1,[3.963058599969372],[None],5,1.064394999993965,,,,,0,14,14,23,1695.5251270999433,,25,Female,Right handed,Corrected to normal,,,,,,,,,,,,,,,,,,,,,,,,,,,,,,,,,,,,,,,,1695.5048657999141,1695.5251270999433,1695.5251270999433,1695.5251270999433,1695.5251270999433,1695.5251270999433,1695.5251270999433,1699.4914489999646,['l'],1,[3.963058599969372],[None],1699.4923960999586,1699.506229499937,1699.506229499937,1699.506229499937,1700.5742094999878,5,1.064394999993965,5,1.064394999993965,,,,,,,,sub52_NB,001,2026-01-26_16h01.01.670,recognitionstage,,2025.1.1,60.04581495615659,2026-01-26 16h03.04.781577 +0530,
,,,15,15,0,5,frames\Vid5_EM_T.png,frames\Vid5_L.png,['l'],1,[2.920911099994555],[None],5,1.5310919999610633,,,,,0,15,15,4,1700.6231509000063,,25,Female,Right handed,Corrected to normal,,,,,,,,,,,,,,,,,,,,,,,,,,,,,,,,,,,,,,,,1700.6045197999338,1700.6231509000063,1700.6231509000063,1700.6231509000063,1700.6231509000063,1700.6231509000063,1700.6231509000063,1703.5581720999908,['l'],1,[2.920911099994555],[None],1703.559107299894,1703.5729077999713,1703.5729077999713,1703.5729077999713,1705.1076645998983,5,1.5310919999610633,5,1.5310919999610633,,,,,,,,sub52_NB,001,2026-01-26_16h01.01.670,recognitionstage,,2025.1.1,60.04581495615659,2026-01-26 16h03.04.781577 +0530,
,,,16,16,0,13,frames\Vid13_BB_T.png,frames\Vid13_L.png,['r'],0,[8.145385499927215],[None],5,1.1804221000056714,,,,,0,16,16,12,1705.1587204999523,,25,Female,Right handed,Corrected to normal,,,,,,,,,,,,,,,,,,,,,,,,,,,,,,,,,,,,,,,,1705.141585299978,1705.1587204999523,1705.1587204999523,1705.1587204999523,1705.1587204999523,1705.1587204999523,1705.1587204999523,1713.3086919999914,['r'],0,[8.145385499927215],[None],1713.3097050999058,1713.322577499901,1713.322577499901,1713.322577499901,1714.5075421999209,5,1.1804221000056714,5,1.1804221000056714,,,,,,,,sub52_NB,001,2026-01-26_16h01.01.670,recognitionstage,,2025.1.1,60.04581495615659,2026-01-26 16h03.04.781577 +0530,
,,,17,17,0,7,frames\Vid7_EM_T.png,frames\Vid7_L.png,['l'],1,[4.144137200084515],[None],5,1.0650534000014886,,,,,0,17,17,6,1714.5758598999819,,25,Female,Right handed,Corrected to normal,,,,,,,,,,,,,,,,,,,,,,,,,,,,,,,,,,,,,,,,1714.5535226999782,1714.5758598999819,1714.5758598999819,1714.5758598999819,1714.5758598999819,1714.5758598999819,1714.5758598999819,1718.7249332999345,['l'],1,[4.144137200084515],[None],1718.7258934999118,1718.7392209999962,1718.7392209999962,1718.7392209999962,1719.8062256999547,5,1.0650534000014886,5,1.0650534000014886,,,,,,,,sub52_NB,001,2026-01-26_16h01.01.670,recognitionstage,,2025.1.1,60.04581495615659,2026-01-26 16h03.04.781577 +0530,
,,,18,18,0,3,frames\Vid3_BB_T.png,frames\Vid3_L.png,['r'],1,[3.164956400054507],[None],5,1.196704899892211,,,,,0,18,18,2,1719.8592205999885,,25,Female,Right handed,Corrected to normal,,,,,,,,,,,,,,,,,,,,,,,,,,,,,,,,,,,,,,,,1719.8463679999113,1719.8592205999885,1719.8592205999885,1719.8592205999885,1719.8592205999885,1719.8592205999885,1719.8592205999885,1723.0256538999965,['r'],1,[3.164956400054507],[None],1723.0268616999965,1723.0395674000029,1723.0395674000029,1723.0395674000029,1724.24109149992,5,1.196704899892211,5,1.196704899892211,,,,,,,,sub52_NB,001,2026-01-26_16h01.01.670,recognitionstage,,2025.1.1,60.04581495615659,2026-01-26 16h03.04.781577 +0530,
,,,19,19,0,32,frames\Vid32_EM_T.png,frames\Vid32_L.png,['l'],1,[2.261110399966128],[None],5,1.2485469999955967,,,,,0,19,19,31,1724.2751148999669,,25,Female,Right handed,Corrected to normal,,,,,,,,,,,,,,,,,,,,,,,,,,,,,,,,,,,,,,,,1724.2542415999342,1724.2751148999669,1724.2751148999669,1724.2751148999669,1724.2751148999669,1724.2751148999669,1724.2751148999669,1726.5410191999981,['l'],1,[2.261110399966128],[None],1726.5419721999206,1726.5562427999685,1726.5562427999685,1726.5562427999685,1727.8068933999166,5,1.2485469999955967,5,1.2485469999955967,,,,,,,,sub52_NB,001,2026-01-26_16h01.01.670,recognitionstage,,2025.1.1,60.04581495615659,2026-01-26 16h03.04.781577 +0530,
,,,20,20,0,18,frames\Vid18_EM_T.png,frames\Vid18_L.png,['l'],1,[3.5127389999106526],[None],5,2.2472498000133783,,,,,0,20,20,17,1727.8394702998921,,25,Female,Right handed,Corrected to normal,,,,,,,,,,,,,,,,,,,,,,,,,,,,,,,,,,,,,,,,1727.8203317999141,1727.8394702998921,1727.8394702998921,1727.8394702998921,1727.8394702998921,1727.8394702998921,1727.8394702998921,1731.3587828999152,['l'],1,[3.5127389999106526],[None],1731.3598339000018,1731.3723447999218,1731.3723447999218,1731.3723447999218,1733.624298999901,5,2.2472498000133783,5,2.2472498000133783,,,,,,,,sub52_NB,001,2026-01-26_16h01.01.670,recognitionstage,,2025.1.1,60.04581495615659,2026-01-26 16h03.04.781577 +0530,
,,,21,21,0,37,frames\Vid37_BB_T.png,frames\Vid37_L.png,['r'],1,[3.560053799999878],[None],5,2.332624000031501,,,,,0,21,21,36,1733.6559720999794,,25,Female,Right handed,Corrected to normal,,,,,,,,,,,,,,,,,,,,,,,,,,,,,,,,,,,,,,,,1733.6389911998995,1733.6559720999794,1733.6559720999794,1733.6559720999794,1733.6559720999794,1733.6559720999794,1733.6559720999794,1737.223526799935,['r'],1,[3.560053799999878],[None],1737.22418619995,1737.239954299992,1737.239954299992,1737.239954299992,1739.5734204999171,5,2.332624000031501,5,2.332624000031501,,,,,,,,sub52_NB,001,2026-01-26_16h01.01.670,recognitionstage,,2025.1.1,60.04581495615659,2026-01-26 16h03.04.781577 +0530,
,,,22,22,0,17,frames\Vid17_BB_T.png,frames\Vid17_L.png,['r'],1,[5.345852899947204],[None],5,1.3803025999804959,,,,,0,22,22,16,1739.606279599946,,25,Female,Right handed,Corrected to normal,,,,,,,,,,,,,,,,,,,,,,,,,,,,,,,,,,,,,,,,1739.5972814999986,1739.606279599946,1739.606279599946,1739.606279599946,1739.606279599946,1739.606279599946,1739.606279599946,1744.9595972999232,['r'],1,[5.345852899947204],[None],1744.9608800999122,1744.9877578999149,1744.9877578999149,1744.9877578999149,1746.3564156999346,5,1.3803025999804959,5,1.3803025999804959,,,,,,,,sub52_NB,001,2026-01-26_16h01.01.670,recognitionstage,,2025.1.1,60.04581495615659,2026-01-26 16h03.04.781577 +0530,
,,,23,23,0,33,frames\Vid33_BB_T.png,frames\Vid33_L.png,['l'],1,[4.535849999985658],[None],5,2.0146192999091,,,,,0,23,23,32,1746.376195599907,,25,Female,Right handed,Corrected to normal,,,,,,,,,,,,,,,,,,,,,,,,,,,,,,,,,,,,,,,,1746.366412299918,1746.376195599907,1746.376195599907,1746.376195599907,1746.376195599907,1746.376195599907,1746.376195599907,1750.9249358999077,['l'],1,[4.535849999985658],[None],1750.9265163999517,1750.9546126999194,1750.9546126999194,1750.9546126999194,1752.9569049999118,5,2.0146192999091,5,2.0146192999091,,,,,,,,sub52_NB,001,2026-01-26_16h01.01.670,recognitionstage,,2025.1.1,60.04581495615659,2026-01-26 16h03.04.781577 +0530,
,,,24,24,0,23,frames\Vid23_EM_T.png,frames\Vid23_L.png,['r'],1,[7.970815699896775],[None],5,1.930209800018929,,,,,0,24,24,22,1752.989257899928,,25,Female,Right handed,Corrected to normal,,,,,,,,,,,,,,,,,,,,,,,,,,,,,,,,,,,,,,,,1752.9719626998994,1752.989257899928,1752.989257899928,1752.989257899928,1752.989257899928,1752.989257899928,1752.989257899928,1760.9759123999393,['r'],1,[7.970815699896775],[None],1760.9770926999627,1760.9893754000077,1760.9893754000077,1760.9893754000077,1762.923709900002,5,1.930209800018929,5,1.930209800018929,,,,,,,,sub52_NB,001,2026-01-26_16h01.01.670,recognitionstage,,2025.1.1,60.04581495615659,2026-01-26 16h03.04.781577 +0530,
,,,25,25,0,8,frames\Vid8_BB_T.png,frames\Vid8_L.png,['r'],0,[9.002513000043109],[None],5,1.3800780000165105,,,,,0,25,25,7,1762.9736555999843,,25,Female,Right handed,Corrected to normal,,,,,,,,,,,,,,,,,,,,,,,,,,,,,,,,,,,,,,,,1762.964072200004,1762.9736555999843,1762.9736555999843,1762.9736555999843,1762.9736555999843,1762.9736555999843,1762.9736555999843,1771.9922212999081,['r'],0,[9.002513000043109],[None],1771.9932670999551,1772.0058055999689,1772.0058055999689,1772.0058055999689,1773.3902674999554,5,1.3800780000165105,5,1.3800780000165105,,,,,,,,sub52_NB,001,2026-01-26_16h01.01.670,recognitionstage,,2025.1.1,60.04581495615659,2026-01-26 16h03.04.781577 +0530,
,,,26,26,0,39,frames\Vid39_BB_T.png,frames\Vid39_L.png,['l'],1,[6.662834499962628],[None],5,1.1298162000020966,,,,,0,26,26,38,1773.4252539000008,,25,Female,Right handed,Corrected to normal,,,,,,,,,,,,,,,,,,,,,,,,,,,,,,,,,,,,,,,,1773.4006359999767,1773.4252539000008,1773.4252539000008,1773.4252539000008,1773.4252539000008,1773.4252539000008,1773.4252539000008,1780.0923336999258,['l'],1,[6.662834499962628],[None],1780.0937229999108,1780.120891599916,1780.120891599916,1780.120891599916,1781.2404715999728,5,1.1298162000020966,5,1.1298162000020966,,,,,,,,sub52_NB,001,2026-01-26_16h01.01.670,recognitionstage,,2025.1.1,60.04581495615659,2026-01-26 16h03.04.781577 +0530,
,,,27,27,0,2,frames\Vid2_BB_T.png,frames\Vid2_L.png,['l'],1,[2.6622937000356615],[None],5,1.0322982999496162,,,,,0,27,27,1,1781.2899578999495,,25,Female,Right handed,Corrected to normal,,,,,,,,,,,,,,,,,,,,,,,,,,,,,,,,,,,,,,,,1781.278426899924,1781.2899578999495,1781.2899578999495,1781.2899578999495,1781.2899578999495,1781.2899578999495,1781.2899578999495,1783.9576738999458,['l'],1,[2.6622937000356615],[None],1783.958392099943,1783.9729158999398,1783.9729158999398,1783.9729158999398,1785.0067702999804,5,1.0322982999496162,5,1.0322982999496162,,,,,,,,sub52_NB,001,2026-01-26_16h01.01.670,recognitionstage,,2025.1.1,60.04581495615659,2026-01-26 16h03.04.781577 +0530,
,,,28,28,0,34,frames\Vid34_BB_T.png,frames\Vid34_L.png,['l'],1,[3.252571400022134],[None],5,1.3149243000661954,,,,,0,28,28,33,1785.027435899945,,25,Female,Right handed,Corrected to normal,,,,,,,,,,,,,,,,,,,,,,,,,,,,,,,,,,,,,,,,1785.0162966999924,1785.027435899945,1785.027435899945,1785.027435899945,1785.027435899945,1785.027435899945,1785.027435899945,1788.2911831999663,['l'],1,[3.252571400022134],[None],1788.292268899968,1788.3062644999009,1788.3062644999009,1788.3062644999009,1789.6238150999416,5,1.3149243000661954,5,1.3149243000661954,,,,,,,,sub52_NB,001,2026-01-26_16h01.01.670,recognitionstage,,2025.1.1,60.04581495615659,2026-01-26 16h03.04.781577 +0530,
,,,29,29,0,22,frames\Vid22_EM_T.png,frames\Vid22_L.png,['r'],1,[3.448309400002472],[None],5,1.1810072000371292,,,,,0,29,29,21,1789.655744299991,,25,Female,Right handed,Corrected to normal,,,,,,,,,,,,,,,,,,,,,,,,,,,,,,,,,,,,,,,,1789.6361657999223,1789.655744299991,1789.655744299991,1789.655744299991,1789.655744299991,1789.655744299991,1789.655744299991,1793.1084883000003,['r'],1,[3.448309400002472],[None],1793.1093667999376,1793.1223913999274,1793.1223913999274,1793.1223913999274,1794.3074732999085,5,1.1810072000371292,5,1.1810072000371292,,,,,,,,sub52_NB,001,2026-01-26_16h01.01.670,recognitionstage,,2025.1.1,60.04581495615659,2026-01-26 16h03.04.781577 +0530,
,,,30,30,0,38,frames\Vid38_EM_T.png,frames\Vid38_L.png,['l'],1,[8.460998899885453],[None],5,0.9482402999419719,,,,,0,30,30,37,1794.3392263998976,,25,Female,Right handed,Corrected to normal,,,,,,,,,,,,,,,,,,,,,,,,,,,,,,,,,,,,,,,,1794.3171166999964,1794.3392263998976,1794.3392263998976,1794.3392263998976,1794.3392263998976,1794.3392263998976,1794.3392263998976,1802.8079456998967,['l'],1,[8.460998899885453],[None],1802.8088359999238,1802.8228403999237,1802.8228403999237,1802.8228403999237,1803.773272399907,5,0.9482402999419719,5,0.9482402999419719,,,,,,,,sub52_NB,001,2026-01-26_16h01.01.670,recognitionstage,,2025.1.1,60.04581495615659,2026-01-26 16h03.04.781577 +0530,
,,,31,31,0,30,frames\Vid30_EM_T.png,frames\Vid30_L.png,['l'],1,[6.0087711999658495],[None],5,1.4993114999961108,,,,,0,31,31,29,1803.791327099898,,25,Female,Right handed,Corrected to normal,,,,,,,,,,,,,,,,,,,,,,,,,,,,,,,,,,,,,,,,1803.7825793999946,1803.791327099898,1803.791327099898,1803.791327099898,1803.791327099898,1803.791327099898,1803.791327099898,1809.807342999964,['l'],1,[6.0087711999658495],[None],1809.808082100004,1809.8229132998968,1809.8229132998968,1809.8229132998968,1811.3241854999214,5,1.4993114999961108,5,1.4993114999961108,,,,,,,,sub52_NB,001,2026-01-26_16h01.01.670,recognitionstage,,2025.1.1,60.04581495615659,2026-01-26 16h03.04.781577 +0530,
,,,32,32,0,1,frames\Vid1_EM_T.png,frames\Vid1_L.png,['r'],1,[11.04220639995765],[None],5,2.130612300010398,,,,,0,32,32,0,1811.3899737999309,,25,Female,Right handed,Corrected to normal,,,,,,,,,,,,,,,,,,,,,,,,,,,,,,,,,,,,,,,,1811.3720279999543,1811.3899737999309,1811.3899737999309,1811.3899737999309,1811.3899737999309,1811.3899737999309,1811.3899737999309,1822.4421920999885,['r'],1,[11.04220639995765],[None],1822.4432516999077,1822.4560434999876,1822.4560434999876,1822.4560434999876,1824.5902104999404,5,2.130612300010398,5,2.130612300010398,,,,,,,,sub52_NB,001,2026-01-26_16h01.01.670,recognitionstage,,2025.1.1,60.04581495615659,2026-01-26 16h03.04.781577 +0530,
,,,33,33,0,29,frames\Vid29_BB_T.png,frames\Vid29_L.png,['l'],1,[3.118129799957387],[None],5,1.4817719999700785,,,,,0,33,33,28,1824.6259120999603,,25,Female,Right handed,Corrected to normal,,,,,,,,,,,,,,,,,,,,,,,,,,,,,,,,,,,,,,,,1824.6020592999412,1824.6259120999603,1824.6259120999603,1824.6259120999603,1824.6259120999603,1824.6259120999603,1824.6259120999603,1827.757587699918,['l'],1,[3.118129799957387],[None],1827.758657099912,1827.7728801999474,1827.7728801999474,1827.7728801999474,1829.256566099939,5,1.4817719999700785,5,1.4817719999700785,,,,,,,,sub52_NB,001,2026-01-26_16h01.01.670,recognitionstage,,2025.1.1,60.04581495615659,2026-01-26 16h03.04.781577 +0530,
,,,34,34,0,21,frames\Vid21_BB_T.png,frames\Vid21_L.png,['r'],1,[3.230908500030637],[None],5,1.4487835000036284,,,,,0,34,34,20,1829.2894243999617,,25,Female,Right handed,Corrected to normal,,,,,,,,,,,,,,,,,,,,,,,,,,,,,,,,,,,,,,,,1829.2711683999514,1829.2894243999617,1829.2894243999617,1829.2894243999617,1829.2894243999617,1829.2894243999617,1829.2894243999617,1832.5243837999878,['r'],1,[3.230908500030637],[None],1832.5253935999935,1832.539776999969,1832.539776999969,1832.539776999969,1833.9897144999122,5,1.4487835000036284,5,1.4487835000036284,,,,,,,,sub52_NB,001,2026-01-26_16h01.01.670,recognitionstage,,2025.1.1,60.04581495615659,2026-01-26 16h03.04.781577 +0530,
,,,35,35,0,9,frames\Vid9_EM_T.png,frames\Vid9_L.png,['r'],1,[6.439943099976517],[None],5,1.7643856999929994,,,,,0,35,35,8,1834.0400992999785,,25,Female,Right handed,Corrected to normal,,,,,,,,,,,,,,,,,,,,,,,,,,,,,,,,,,,,,,,,1834.0250154999085,1834.0400992999785,1834.0400992999785,1834.0400992999785,1834.0400992999785,1834.0400992999785,1834.0400992999785,1840.4916713999119,['r'],1,[6.439943099976517],[None],1840.492657099967,1840.5059717999538,1840.5059717999538,1840.5059717999538,1842.2734253999079,5,1.7643856999929994,5,1.7643856999929994,,,,,,,,sub52_NB,001,2026-01-26_16h01.01.670,recognitionstage,,2025.1.1,60.04581495615659,2026-01-26 16h03.04.781577 +0530,
,,,36,36,0,28,frames\Vid28_EM_T.png,frames\Vid28_L.png,['l'],1,[2.93171410006471],[None],5,1.482093199971132,,,,,0,36,36,27,1842.3084028000012,,25,Female,Right handed,Corrected to normal,,,,,,,,,,,,,,,,,,,,,,,,,,,,,,,,,,,,,,,,1842.2852677999763,1842.3084028000012,1842.3084028000012,1842.3084028000012,1842.3084028000012,1842.3084028000012,1842.3084028000012,1845.2415251999628,['l'],1,[2.93171410006471],[None],1845.2425506999716,1845.256165199913,1845.256165199913,1845.256165199913,1846.739622599911,5,1.482093199971132,5,1.482093199971132,,,,,,,,sub52_NB,001,2026-01-26_16h01.01.670,recognitionstage,,2025.1.1,60.04581495615659,2026-01-26 16h03.04.781577 +0530,
,,,37,37,0,16,frames\Vid16_EM_T.png,frames\Vid16_L.png,['r'],1,[23.697757299989462],[None],3,2.2813826999627054,,,,,0,37,37,15,1846.7903741999762,,25,Female,Right handed,Corrected to normal,,,,,,,,,,,,,,,,,,,,,,,,,,,,,,,,,,,,,,,,1846.7776954999426,1846.7903741999762,1846.7903741999762,1846.7903741999762,1846.7903741999762,1846.7903741999762,1846.7903741999762,1870.4914890999207,['r'],1,[23.697757299989462],[None],1870.4924664999126,1870.506334799924,1870.506334799924,1870.506334799924,1872.7901060999138,3,2.2813826999627054,3,2.2813826999627054,,,,,,,,sub52_NB,001,2026-01-26_16h01.01.670,recognitionstage,,2025.1.1,60.04581495615659,2026-01-26 16h03.04.781577 +0530,
,,,38,38,0,20,frames\Vid20_EM_T.png,frames\Vid20_L.png,['l'],1,[2.245739300036803],[None],5,1.6974370999960229,,,,,0,38,38,19,1872.8104998999042,,25,Female,Right handed,Corrected to normal,,,,,,,,,,,,,,,,,,,,,,,,,,,,,,,,,,,,,,,,1872.7973860999336,1872.8104998999042,1872.8104998999042,1872.8104998999042,1872.8104998999042,1872.8104998999042,1872.8104998999042,1875.0584657998988,['l'],1,[2.245739300036803],[None],1875.0594651999418,1875.072918199934,1875.072918199934,1875.072918199934,1876.7738662000047,5,1.6974370999960229,5,1.6974370999960229,,,,,,,,sub52_NB,001,2026-01-26_16h01.01.670,recognitionstage,,2025.1.1,60.04581495615659,2026-01-26 16h03.04.781577 +0530,
,,,39,39,0,36,frames\Vid36_BB_T.png,frames\Vid36_L.png,['r'],1,[3.106427500024438],[None],5,1.0474452000344172,,,,,0,39,39,35,1876.8056229999056,,25,Female,Right handed,Corrected to normal,,,,,,,,,,,,,,,,,,,,,,,,,,,,,,,,,,,,,,,,1876.7871934999712,1876.8056229999056,1876.8056229999056,1876.8056229999056,1876.8056229999056,1876.8056229999056,1876.8056229999056,1879.9248499999521,['r'],1,[3.106427500024438],[None],1879.9258870999329,1879.9396366999717,1879.9396366999717,1879.9396366999717,1880.9903213999933,5,1.0474452000344172,5,1.0474452000344172,,,,,,,,sub52_NB,001,2026-01-26_16h01.01.670,recognitionstage,,2025.1.1,60.04581495615659,2026-01-26 16h03.04.781577 +0530,
,,,,,,,,,,,,,,,,,,,,,,,,,25,Female,Right handed,Corrected to normal,,,,,,,,,,,,,,,,,,,,,,,,,,,,,,,,,,,,,,,,,,,,,,,,,,,,,,,,,,,,,1880.9904480999103,1881.0064121999312,1881.0064121999312,1883.9247408999363,space,2.905711099971086,None,sub52_NB,001,2026-01-26_16h01.01.670,recognitionstage,,2025.1.1,60.04581495615659,2026-01-26 16h03.04.781577 +0530,
