path,duration,is_repeat,thisN,thisTrialN,thisRepN,movie_id,target_img,lure_img,resp.keys,resp.corr,resp.rt,resp.duration,conf_radio.response,conf_radio.rt,movie.thisRepN,movie.thisTrialN,movie.thisN,movie.thisIndex,recogloop.thisRepN,recogloop.thisTrialN,recogloop.thisN,recogloop.thisIndex,thisRow.t,notes,age,gender,handedness,vision,caffeine_2h,alcohol_smoke_12h,demographics.started,demographics.stopped,Instructions.started,text1.started,key_resp.started,Instructions.stopped,key_resp.keys,key_resp.rt,key_resp.duration,instruction_2.started,text2.started,key_resp_2.started,instruction_2.stopped,key_resp_2.keys,key_resp_2.rt,key_resp_2.duration,Videos.started,movie_2.started,vigilance_resp.started,movie_2.stopped,Videos.stopped,movie.vigilance_resp.keys,vigilance_pressed,vigilance_correct,ISI.started,text.started,ISI.stopped,text.stopped,movie.vigilance_resp.rt,movie.vigilance_resp.duration,recognition.started,text_4.started,key_resp_3.started,recognition.stopped,key_resp_3.keys,key_resp_3.rt,key_resp_3.duration,recognition_task.started,leftimage.started,rightimage.started,resp.started,frames_question.started,right_label.started,left_label.started,recognition_task.stopped,recogloop.resp.keys,recogloop.resp.corr,recogloop.resp.rt,recogloop.resp.duration,confidence.started,conf_text.started,conf_radio.started,conf_label.started,confidence.stopped,recogloop.conf_radio.response,recogloop.conf_radio.rt,confidence,confidence_rt,thank_you.started,text_6.started,key_resp_4.started,thank_you.stopped,key_resp_4.keys,key_resp_4.rt,key_resp_4.duration,participant,session,date,expName,expVersion,psychopyVersion,frameRate,expStart,...105
,,,,,,,,,,,,,,,,,,,,,,,,,25,Male,Right handed,Corrected to normal,Caffeine consumed in last 2 hours?,Alcohol or smoking in last 12 hours?,0.007846500026062131,0.010386400041170418,,,,,,,,,,,,,,,,,,,,,,,,,,,,,,,,,,,,,,,,,,,,,,,,,,,,,,,,,,,,,,,,sub51_NB,001,2026-01-26_15h27.29.055,recognitionstage,,2025.1.1,59.97454680401794,2026-01-26 15h28.20.665445 +0530,
,,,,,,,,,,,,,,,,,,,,,,,,,25,Male,Right handed,Corrected to normal,,,,,0.010407499969005585,0.026424800045788288,0.026424800045788288,8.960375800030306,space,8.925052899983712,None,,,,,,,,,,,,,,,,,,,,,,,,,,,,,,,,,,,,,,,,,,,,,,,,,,,,,,,,,sub51_NB,001,2026-01-26_15h27.29.055,recognitionstage,,2025.1.1,59.97454680401794,2026-01-26 15h28.20.665445 +0530,
,,,,,,,,,,,,,,,,,,,,,,,,,25,Male,Right handed,Corrected to normal,,,,,,,,,,,,8.960399899980985,8.976265399949625,8.976265399949625,19.06171819998417,space,10.071288399980403,None,,,,,,,,,,,,,,,,,,,,,,,,,,,,,,,,,,,,,,,,,,,,,,,,,,sub51_NB,001,2026-01-26_15h27.29.055,recognitionstage,,2025.1.1,59.97454680401794,2026-01-26 15h28.20.665445 +0530,
Trimmed_videos/natural_2.mp4,31,0,44,44,0,,,,,,,,,,0,44,44,1,,,,,1534.72677259997,,25,Male,Right handed,Corrected to normal,,,,,,,,,,,,,,,,,,,1534.6814125999808,1534.72677259997,1534.72677259997,1566.4925024999538,1566.3496899000602,None,0,1,1566.4848452999722,1566.4925024999538,1568.9785553000402,1568.993714799988,2.520515299984254,None,1568.978628700017,1568.993714799988,1568.993714799988,1602.3790353999939,space,33.3823261000216,None,,,,,,,,,,,,,,,,,,,,,,,,,,,,,sub51_NB,001,2026-01-26_15h27.29.055,recognitionstage,,2025.1.1,59.97454680401794,2026-01-26 15h28.20.665445 +0530,
,,,0,0,0,21,frames\Vid21_BB_T.png,frames\Vid21_L.png,['r'],1,[4.095709300017916],[None],4,10.615887799998745,,,,,0,0,0,20,1602.4082215999952,,25,Male,Right handed,Corrected to normal,,,,,,,,,,,,,,,,,,,,,,,,,,,,,,,,,,,,,,,,1602.4004910000367,1602.4082215999952,1602.4082215999952,1602.4082215999952,1602.4082215999952,1602.4082215999952,1602.4082215999952,1606.511669300031,['r'],1,[4.095709300017916],[None],1606.5127385000233,1606.5410890999483,1606.5410890999483,1606.5410890999483,1617.143358399975,4,10.615887799998745,4,10.615887799998745,,,,,,,,sub51_NB,001,2026-01-26_15h27.29.055,recognitionstage,,2025.1.1,59.97454680401794,2026-01-26 15h28.20.665445 +0530,
,,,1,1,0,26,frames\Vid26_EM_T.png,frames\Vid26_L.png,['r'],1,[8.128883600002155],[None],4,2.9984680000925437,,,,,0,1,1,25,1617.1751753999852,,25,Male,Right handed,Corrected to normal,,,,,,,,,,,,,,,,,,,,,,,,,,,,,,,,,,,,,,,,1617.1617954999674,1617.1751753999852,1617.1751753999852,1617.1751753999852,1617.1751753999852,1617.1751753999852,1617.1751753999852,1625.3116658000508,['r'],1,[8.128883600002155],[None],1625.312819099985,1625.3265804999974,1625.3265804999974,1625.3265804999974,1628.3271259999601,4,2.9984680000925437,4,2.9984680000925437,,,,,,,,sub51_NB,001,2026-01-26_15h27.29.055,recognitionstage,,2025.1.1,59.97454680401794,2026-01-26 15h28.20.665445 +0530,
,,,2,2,0,2,frames\Vid2_BB_T.png,frames\Vid2_L.png,['l'],1,[5.622394400066696],[None],5,2.215667200041935,,,,,0,2,2,1,1628.3773727000225,,25,Male,Right handed,Corrected to normal,,,,,,,,,,,,,,,,,,,,,,,,,,,,,,,,,,,,,,,,1628.3657064000145,1628.3773727000225,1628.3773727000225,1628.3773727000225,1628.3773727000225,1628.3773727000225,1628.3773727000225,1634.011827099952,['l'],1,[5.622394400066696],[None],1634.0126991999568,1634.0265235999832,1634.0265235999832,1634.0265235999832,1636.24367180001,5,2.215667200041935,5,2.215667200041935,,,,,,,,sub51_NB,001,2026-01-26_15h27.29.055,recognitionstage,,2025.1.1,59.97454680401794,2026-01-26 15h28.20.665445 +0530,
,,,3,3,0,24,frames\Vid24_BB_T.png,frames\Vid24_L.png,['r'],1,[9.860772900050506],[None],4,2.8491650000214577,,,,,0,3,3,23,1636.2751760999672,,25,Male,Right handed,Corrected to normal,,,,,,,,,,,,,,,,,,,,,,,,,,,,,,,,,,,,,,,,1636.2684441000456,1636.2751760999672,1636.2751760999672,1636.2751760999672,1636.2751760999672,1636.2751760999672,1636.2751760999672,1646.144625499961,['r'],1,[9.860772900050506],[None],1646.1455496000126,1646.160100499983,1646.160100499983,1646.160100499983,1649.0101199999917,4,2.8491650000214577,4,2.8491650000214577,,,,,,,,sub51_NB,001,2026-01-26_15h27.29.055,recognitionstage,,2025.1.1,59.97454680401794,2026-01-26 15h28.20.665445 +0530,
,,,4,4,0,15,frames\Vid15_BB_T.png,frames\Vid15_L.png,['r'],1,[9.154366899980232],[None],4,2.116330499993637,,,,,0,4,4,14,1649.0772361999843,,25,Male,Right handed,Corrected to normal,,,,,,,,,,,,,,,,,,,,,,,,,,,,,,,,,,,,,,,,1649.0618078999687,1649.0772361999843,1649.0772361999843,1649.0772361999843,1649.0772361999843,1649.0772361999843,1649.0772361999843,1658.2439658000367,['r'],1,[9.154366899980232],[None],1658.2449053999735,1658.2600988000631,1658.2600988000631,1658.2600988000631,1660.3767959000543,4,2.116330499993637,4,2.116330499993637,,,,,,,,sub51_NB,001,2026-01-26_15h27.29.055,recognitionstage,,2025.1.1,59.97454680401794,2026-01-26 15h28.20.665445 +0530,
,,,5,5,0,5,frames\Vid5_EM_T.png,frames\Vid5_L.png,['r'],1,[6.266270600026473],[None],3,1.7796149000059813,,,,,0,5,5,4,1660.4294713999843,,25,Male,Right handed,Corrected to normal,,,,,,,,,,,,,,,,,,,,,,,,,,,,,,,,,,,,,,,,1660.4085553999757,1660.4294713999843,1660.4294713999843,1660.4294713999843,1660.4294713999843,1660.4294713999843,1660.4294713999843,1666.713045099983,['r'],1,[6.266270600026473],[None],1666.7143510000315,1666.726330399979,1666.726330399979,1666.726330399979,1668.511142399977,3,1.7796149000059813,3,1.7796149000059813,,,,,,,,sub51_NB,001,2026-01-26_15h27.29.055,recognitionstage,,2025.1.1,59.97454680401794,2026-01-26 15h28.20.665445 +0530,
,,,6,6,0,29,frames\Vid29_BB_T.png,frames\Vid29_L.png,['l'],1,[9.118424399988726],[None],4,1.9477891999995336,,,,,0,6,6,28,1668.5452425000258,,25,Male,Right handed,Corrected to normal,,,,,,,,,,,,,,,,,,,,,,,,,,,,,,,,,,,,,,,,1668.5233340000268,1668.5452425000258,1668.5452425000258,1668.5452425000258,1668.5452425000258,1668.5452425000258,1668.5452425000258,1677.6788218000438,['l'],1,[9.118424399988726],[None],1677.6799262999557,1677.6932793000014,1677.6932793000014,1677.6932793000014,1679.6433574999683,4,1.9477891999995336,4,1.9477891999995336,,,,,,,,sub51_NB,001,2026-01-26_15h27.29.055,recognitionstage,,2025.1.1,59.97454680401794,2026-01-26 15h28.20.665445 +0530,
,,,7,7,0,23,frames\Vid23_EM_T.png,frames\Vid23_L.png,['r'],1,[4.68330130004324],[None],4,1.7147982999449596,,,,,0,7,7,22,1679.676300900057,,25,Male,Right handed,Corrected to normal,,,,,,,,,,,,,,,,,,,,,,,,,,,,,,,,,,,,,,,,1679.6591074999887,1679.676300900057,1679.676300900057,1679.676300900057,1679.676300900057,1679.676300900057,1679.676300900057,1684.361695199972,['r'],1,[4.68330130004324],[None],1684.3623936000513,1684.3763708999613,1684.3763708999613,1684.3763708999613,1686.094268899993,4,1.7147982999449596,4,1.7147982999449596,,,,,,,,sub51_NB,001,2026-01-26_15h27.29.055,recognitionstage,,2025.1.1,59.97454680401794,2026-01-26 15h28.20.665445 +0530,
,,,8,8,0,35,frames\Vid35_EM_T.png,frames\Vid35_L.png,['l'],1,[4.152893699938431],[None],5,2.232244100072421,,,,,0,8,8,34,1686.1269383999752,,25,Male,Right handed,Corrected to normal,,,,,,,,,,,,,,,,,,,,,,,,,,,,,,,,,,,,,,,,1686.1049974999623,1686.1269383999752,1686.1269383999752,1686.1269383999752,1686.1269383999752,1686.1269383999752,1686.1269383999752,1690.2945486999815,['l'],1,[4.152893699938431],[None],1690.2952350999694,1690.3101800000295,1690.3101800000295,1690.3101800000295,1692.5440352000296,5,2.232244100072421,5,2.232244100072421,,,,,,,,sub51_NB,001,2026-01-26_15h27.29.055,recognitionstage,,2025.1.1,59.97454680401794,2026-01-26 15h28.20.665445 +0530,
,,,9,9,0,18,frames\Vid18_EM_T.png,frames\Vid18_L.png,['l'],1,[5.967557700001635],[None],4,1.748258400009945,,,,,0,9,9,17,1692.5761995000066,,25,Male,Right handed,Corrected to normal,,,,,,,,,,,,,,,,,,,,,,,,,,,,,,,,,,,,,,,,1692.555593600031,1692.5761995000066,1692.5761995000066,1692.5761995000066,1692.5761995000066,1692.5761995000066,1692.5761995000066,1698.5449717000592,['l'],1,[5.967557700001635],[None],1698.54591970006,1698.559819899965,1698.559819899965,1698.559819899965,1700.310310299974,4,1.748258400009945,4,1.748258400009945,,,,,,,,sub51_NB,001,2026-01-26_15h27.29.055,recognitionstage,,2025.1.1,59.97454680401794,2026-01-26 15h28.20.665445 +0530,
,,,10,10,0,6,frames\Vid6_BB_T.png,frames\Vid6_L.png,['l'],1,[6.654819599934854],[None],5,1.9482140000909567,,,,,0,10,10,5,1700.3770624999888,,25,Male,Right handed,Corrected to normal,,,,,,,,,,,,,,,,,,,,,,,,,,,,,,,,,,,,,,,,1700.3559474999784,1700.3770624999888,1700.3770624999888,1700.3770624999888,1700.3770624999888,1700.3770624999888,1700.3770624999888,1707.0449628999922,['l'],1,[6.654819599934854],[None],1707.046038600034,1707.0597998000449,1707.0597998000449,1707.0597998000449,1709.010481699952,5,1.9482140000909567,5,1.9482140000909567,,,,,,,,sub51_NB,001,2026-01-26_15h27.29.055,recognitionstage,,2025.1.1,59.97454680401794,2026-01-26 15h28.20.665445 +0530,
,,,11,11,0,31,frames\Vid31_EM_T.png,frames\Vid31_L.png,['r'],1,[3.1281762999715284],[None],5,3.148058700026013,,,,,0,11,11,30,1709.0314283999614,,25,Male,Right handed,Corrected to normal,,,,,,,,,,,,,,,,,,,,,,,,,,,,,,,,,,,,,,,,1709.020181800006,1709.0314283999614,1709.0314283999614,1709.0314283999614,1709.0314283999614,1709.0314283999614,1709.0314283999614,1712.1617375999922,['r'],1,[3.1281762999715284],[None],1712.1625909999711,1712.1761441000272,1712.1761441000272,1712.1761441000272,1715.327514500008,5,3.148058700026013,5,3.148058700026013,,,,,,,,sub51_NB,001,2026-01-26_15h27.29.055,recognitionstage,,2025.1.1,59.97454680401794,2026-01-26 15h28.20.665445 +0530,
,,,12,12,0,36,frames\Vid36_BB_T.png,frames\Vid36_L.png,['l'],1,[3.840222100028768],[None],4,2.0646627000533044,,,,,0,12,12,35,1715.359388699988,,25,Male,Right handed,Corrected to normal,,,,,,,,,,,,,,,,,,,,,,,,,,,,,,,,,,,,,,,,1715.339998499956,1715.359388699988,1715.359388699988,1715.359388699988,1715.359388699988,1715.359388699988,1715.359388699988,1719.2120338999666,['l'],1,[3.840222100028768],[None],1719.2129702999955,1719.2262213999638,1719.2262213999638,1719.2262213999638,1721.293401199975,4,2.0646627000533044,4,2.0646627000533044,,,,,,,,sub51_NB,001,2026-01-26_15h27.29.055,recognitionstage,,2025.1.1,59.97454680401794,2026-01-26 15h28.20.665445 +0530,
,,,13,13,0,37,frames\Vid37_BB_T.png,frames\Vid37_L.png,['r'],1,[4.337102900026366],[None],5,1.3484081999631599,,,,,0,13,13,36,1721.3266467000358,,25,Male,Right handed,Corrected to normal,,,,,,,,,,,,,,,,,,,,,,,,,,,,,,,,,,,,,,,,1721.3047077000374,1721.3266467000358,1721.3266467000358,1721.3266467000358,1721.3266467000358,1721.3266467000358,1721.3266467000358,1725.678720099968,['r'],1,[4.337102900026366],[None],1725.6795513000106,1725.6929972999496,1725.6929972999496,1725.6929972999496,1727.0436808000086,5,1.3484081999631599,5,1.3484081999631599,,,,,,,,sub51_NB,001,2026-01-26_15h27.29.055,recognitionstage,,2025.1.1,59.97454680401794,2026-01-26 15h28.20.665445 +0530,
,,,14,14,0,3,frames\Vid3_BB_T.png,frames\Vid3_L.png,['l'],1,[4.330247699981555],[None],4,1.5650621999520808,,,,,0,14,14,2,1727.0936561999843,,25,Male,Right handed,Corrected to normal,,,,,,,,,,,,,,,,,,,,,,,,,,,,,,,,,,,,,,,,1727.0818718000082,1727.0936561999843,1727.0936561999843,1727.0936561999843,1727.0936561999843,1727.0936561999843,1727.0936561999843,1731.4280024999753,['l'],1,[4.330247699981555],[None],1731.4290602999972,1731.4431907000253,1731.4431907000253,1731.4431907000253,1733.0110849000048,4,1.5650621999520808,4,1.5650621999520808,,,,,,,,sub51_NB,001,2026-01-26_15h27.29.055,recognitionstage,,2025.1.1,59.97454680401794,2026-01-26 15h28.20.665445 +0530,
,,,15,15,0,12,frames\Vid12_EM_T.png,frames\Vid12_L.png,['r'],1,[3.7283860000316054],[None],5,1.4641652000136673,,,,,0,15,15,11,1733.07945249998,,25,Male,Right handed,Corrected to normal,,,,,,,,,,,,,,,,,,,,,,,,,,,,,,,,,,,,,,,,1733.0573690000456,1733.07945249998,1733.07945249998,1733.07945249998,1733.07945249998,1733.07945249998,1733.07945249998,1736.8118785000406,['r'],1,[3.7283860000316054],[None],1736.812935700058,1736.8266201999504,1736.8266201999504,1736.8266201999504,1738.2944849999622,5,1.4641652000136673,5,1.4641652000136673,,,,,,,,sub51_NB,001,2026-01-26_15h27.29.055,recognitionstage,,2025.1.1,59.97454680401794,2026-01-26 15h28.20.665445 +0530,
,,,16,16,0,4,frames\Vid4_EM_T.png,frames\Vid4_L.png,['l'],0,[4.47668030008208],[None],4,1.4467925999779254,,,,,0,16,16,3,1738.3632274999982,,25,Male,Right handed,Corrected to normal,,,,,,,,,,,,,,,,,,,,,,,,,,,,,,,,,,,,,,,,1738.340721399989,1738.3632274999982,1738.3632274999982,1738.3632274999982,1738.3632274999982,1738.3632274999982,1738.3632274999982,1742.8461183999898,['l'],0,[4.47668030008208],[None],1742.8471588999964,1742.8593829000602,1742.8593829000602,1742.8593829000602,1744.310498900013,4,1.4467925999779254,4,1.4467925999779254,,,,,,,,sub51_NB,001,2026-01-26_15h27.29.055,recognitionstage,,2025.1.1,59.97454680401794,2026-01-26 15h28.20.665445 +0530,
,,,17,17,0,13,frames\Vid13_BB_T.png,frames\Vid13_L.png,['r'],0,[7.588430800009519],[None],3,1.0988226999761537,,,,,0,17,17,12,1744.363216000027,,25,Male,Right handed,Corrected to normal,,,,,,,,,,,,,,,,,,,,,,,,,,,,,,,,,,,,,,,,1744.3420011999551,1744.363216000027,1744.363216000027,1744.363216000027,1744.363216000027,1744.363216000027,1744.363216000027,1751.9611382000148,['r'],0,[7.588430800009519],[None],1751.961917800014,1751.9765431999695,1751.9765431999695,1751.9765431999695,1753.0778056000127,3,1.0988226999761537,3,1.0988226999761537,,,,,,,,sub51_NB,001,2026-01-26_15h27.29.055,recognitionstage,,2025.1.1,59.97454680401794,2026-01-26 15h28.20.665445 +0530,
,,,18,18,0,9,frames\Vid9_EM_T.png,frames\Vid9_L.png,['l'],0,[9.17404600000009],[None],3,1.7648247999604791,,,,,0,18,18,8,1753.1297495999606,,25,Male,Right handed,Corrected to normal,,,,,,,,,,,,,,,,,,,,,,,,,,,,,,,,,,,,,,,,1753.1157161999727,1753.1297495999606,1753.1297495999606,1753.1297495999606,1753.1297495999606,1753.1297495999606,1753.1297495999606,1762.3125686000567,['l'],0,[9.17404600000009],[None],1762.3135478000622,1762.3262181000318,1762.3262181000318,1762.3262181000318,1764.0936500000535,3,1.7648247999604791,3,1.7648247999604791,,,,,,,,sub51_NB,001,2026-01-26_15h27.29.055,recognitionstage,,2025.1.1,59.97454680401794,2026-01-26 15h28.20.665445 +0530,
,,,19,19,0,40,frames\Vid40_EM_T.png,frames\Vid40_L.png,['l'],1,[7.741816199966706],[None],4,1.5487403000006452,,,,,0,19,19,39,1764.1140018999577,,25,Male,Right handed,Corrected to normal,,,,,,,,,,,,,,,,,,,,,,,,,,,,,,,,,,,,,,,,1764.1028315000003,1764.1140018999577,1764.1140018999577,1764.1140018999577,1764.1140018999577,1764.1140018999577,1764.1140018999577,1771.8614524999866,['l'],1,[7.741816199966706],[None],1771.8623001000378,1771.8769683999708,1771.8769683999708,1771.8769683999708,1773.4270962000592,4,1.5487403000006452,4,1.5487403000006452,,,,,,,,sub51_NB,001,2026-01-26_15h27.29.055,recognitionstage,,2025.1.1,59.97454680401794,2026-01-26 15h28.20.665445 +0530,
,,,20,20,0,16,frames\Vid16_EM_T.png,frames\Vid16_L.png,['r'],1,[4.690771900000982],[None],4,1.6982685000402853,,,,,0,20,20,15,1773.476930600009,,25,Male,Right handed,Corrected to normal,,,,,,,,,,,,,,,,,,,,,,,,,,,,,,,,,,,,,,,,1773.4676673000213,1773.476930600009,1773.476930600009,1773.476930600009,1773.476930600009,1773.476930600009,1773.476930600009,1778.1781395999715,['r'],1,[4.690771900000982],[None],1778.1790027000243,1778.1931789000519,1778.1931789000519,1778.1931789000519,1779.8942504000152,4,1.6982685000402853,4,1.6982685000402853,,,,,,,,sub51_NB,001,2026-01-26_15h27.29.055,recognitionstage,,2025.1.1,59.97454680401794,2026-01-26 15h28.20.665445 +0530,
,,,21,21,0,27,frames\Vid27_BB_T.png,frames\Vid27_L.png,['r'],1,[3.974681199993938],[None],4,1.1481176000088453,,,,,0,21,21,26,1779.9289707000135,,25,Male,Right handed,Corrected to normal,,,,,,,,,,,,,,,,,,,,,,,,,,,,,,,,,,,,,,,,1779.9046923000133,1779.9289707000135,1779.9289707000135,1779.9289707000135,1779.9289707000135,1779.9289707000135,1779.9289707000135,1783.9116553999484,['r'],1,[3.974681199993938],[None],1783.9124484000495,1783.9261032999493,1783.9261032999493,1783.9261032999493,1785.07752349996,4,1.1481176000088453,4,1.1481176000088453,,,,,,,,sub51_NB,001,2026-01-26_15h27.29.055,recognitionstage,,2025.1.1,59.97454680401794,2026-01-26 15h28.20.665445 +0530,
,,,22,22,0,1,frames\Vid1_EM_T.png,frames\Vid1_L.png,['l'],1,[7.368036399944685],[None],4,1.8153903000056744,,,,,0,22,22,0,1785.1437210000586,,25,Male,Right handed,Corrected to normal,,,,,,,,,,,,,,,,,,,,,,,,,,,,,,,,,,,,,,,,1785.1226368000498,1785.1437210000586,1785.1437210000586,1785.1437210000586,1785.1437210000586,1785.1437210000586,1785.1437210000586,1792.5280542999972,['l'],1,[7.368036399944685],[None],1792.5287343000527,1792.54277239996,1792.54277239996,1792.54277239996,1794.3605585000478,4,1.8153903000056744,4,1.8153903000056744,,,,,,,,sub51_NB,001,2026-01-26_15h27.29.055,recognitionstage,,2025.1.1,59.97454680401794,2026-01-26 15h28.20.665445 +0530,
,,,23,23,0,7,frames\Vid7_EM_T.png,frames\Vid7_L.png,['l'],1,[3.274853900074959],[None],4,1.3306291999761015,,,,,0,23,23,6,1794.412935600034,,25,Male,Right handed,Corrected to normal,,,,,,,,,,,,,,,,,,,,,,,,,,,,,,,,,,,,,,,,1794.4038349000039,1794.412935600034,1794.412935600034,1794.412935600034,1794.412935600034,1794.412935600034,1794.412935600034,1797.6958363000304,['l'],1,[3.274853900074959],[None],1797.6968988999724,1797.7094345999649,1797.7094345999649,1797.7094345999649,1799.0438312999904,4,1.3306291999761015,4,1.3306291999761015,,,,,,,,sub51_NB,001,2026-01-26_15h27.29.055,recognitionstage,,2025.1.1,59.97454680401794,2026-01-26 15h28.20.665445 +0530,
,,,24,24,0,22,frames\Vid22_EM_T.png,frames\Vid22_L.png,['r'],1,[4.376974400016479],[None],5,1.597029099939391,,,,,0,24,24,21,1799.0788820000598,,25,Male,Right handed,Corrected to normal,,,,,,,,,,,,,,,,,,,,,,,,,,,,,,,,,,,,,,,,1799.0593926999718,1799.0788820000598,1799.0788820000598,1799.0788820000598,1799.0788820000598,1799.0788820000598,1799.0788820000598,1803.4624674000079,['r'],1,[4.376974400016479],[None],1803.4634346000385,1803.4916812999872,1803.4916812999872,1803.4916812999872,1805.0770992999896,5,1.597029099939391,5,1.597029099939391,,,,,,,,sub51_NB,001,2026-01-26_15h27.29.055,recognitionstage,,2025.1.1,59.97454680401794,2026-01-26 15h28.20.665445 +0530,
,,,25,25,0,33,frames\Vid33_BB_T.png,frames\Vid33_L.png,['l'],1,[4.088828700012527],[None],5,1.4489840999012813,,,,,0,25,25,32,1805.0948780999752,,25,Male,Right handed,Corrected to normal,,,,,,,,,,,,,,,,,,,,,,,,,,,,,,,,,,,,,,,,1805.086873000022,1805.0948780999752,1805.0948780999752,1805.0948780999752,1805.0948780999752,1805.0948780999752,1805.0948780999752,1809.1944394999882,['l'],1,[4.088828700012527],[None],1809.195308699971,1809.2101236999733,1809.2101236999733,1809.2101236999733,1810.659997700015,5,1.4489840999012813,5,1.4489840999012813,,,,,,,,sub51_NB,001,2026-01-26_15h27.29.055,recognitionstage,,2025.1.1,59.97454680401794,2026-01-26 15h28.20.665445 +0530,
,,,26,26,0,19,frames\Vid19_BB_T.png,frames\Vid19_L.png,['r'],0,[8.691005100030452],[None],3,1.8816306999651715,,,,,0,26,26,18,1810.6927399999695,,25,Male,Right handed,Corrected to normal,,,,,,,,,,,,,,,,,,,,,,,,,,,,,,,,,,,,,,,,1810.6714786000084,1810.6927399999695,1810.6927399999695,1810.6927399999695,1810.6927399999695,1810.6927399999695,1810.6927399999695,1819.3949041999876,['r'],0,[8.691005100030452],[None],1819.3959420999745,1819.4097993000178,1819.4097993000178,1819.4097993000178,1821.2936447999673,3,1.8816306999651715,3,1.8816306999651715,,,,,,,,sub51_NB,001,2026-01-26_15h27.29.055,recognitionstage,,2025.1.1,59.97454680401794,2026-01-26 15h28.20.665445 +0530,
,,,27,27,0,38,frames\Vid38_EM_T.png,frames\Vid38_L.png,['l'],1,[5.919717099983245],[None],4,1.2465276999864727,,,,,0,27,27,37,1821.3120056999614,,25,Male,Right handed,Corrected to normal,,,,,,,,,,,,,,,,,,,,,,,,,,,,,,,,,,,,,,,,1821.303346300032,1821.3120056999614,1821.3120056999614,1821.3120056999614,1821.3120056999614,1821.3120056999614,1821.3120056999614,1827.2458810999524,['l'],1,[5.919717099983245],[None],1827.2471772000426,1827.25948160002,1827.25948160002,1827.25948160002,1828.5104510999518,4,1.2465276999864727,4,1.2465276999864727,,,,,,,,sub51_NB,001,2026-01-26_15h27.29.055,recognitionstage,,2025.1.1,59.97454680401794,2026-01-26 15h28.20.665445 +0530,
,,,28,28,0,34,frames\Vid34_BB_T.png,frames\Vid34_L.png,['l'],1,[4.775746600003913],[None],5,1.1491058999672532,,,,,0,28,28,33,1828.5278962999582,,25,Male,Right handed,Corrected to normal,,,,,,,,,,,,,,,,,,,,,,,,,,,,,,,,,,,,,,,,1828.519173800014,1828.5278962999582,1828.5278962999582,1828.5278962999582,1828.5278962999582,1828.5278962999582,1828.5278962999582,1833.310823100037,['l'],1,[4.775746600003913],[None],1833.3113682999974,1833.326299999957,1833.326299999957,1833.326299999957,1834.4771532999584,5,1.1491058999672532,5,1.1491058999672532,,,,,,,,sub51_NB,001,2026-01-26_15h27.29.055,recognitionstage,,2025.1.1,59.97454680401794,2026-01-26 15h28.20.665445 +0530,
,,,29,29,0,8,frames\Vid8_BB_T.png,frames\Vid8_L.png,['l'],0,[2.792806899989955],[None],4,5.115049200016074,,,,,0,29,29,7,1834.5269571000244,,25,Male,Right handed,Corrected to normal,,,,,,,,,,,,,,,,,,,,,,,,,,,,,,,,,,,,,,,,1834.5146942000138,1834.5269571000244,1834.5269571000244,1834.5269571000244,1834.5269571000244,1834.5269571000244,1834.5269571000244,1837.3283633999527,['l'],0,[2.792806899989955],[None],1837.3294168000575,1837.3435914999573,1837.3435914999573,1837.3435914999573,1842.4602117000613,4,5.115049200016074,4,5.115049200016074,,,,,,,,sub51_NB,001,2026-01-26_15h27.29.055,recognitionstage,,2025.1.1,59.97454680401794,2026-01-26 15h28.20.665445 +0530,
,,,30,30,0,11,frames\Vid11_EM_T.png,frames\Vid11_L.png,['r'],1,[3.4068972000386566],[None],5,1.5132918999297544,,,,,0,30,30,10,1842.5129323999863,,25,Male,Right handed,Corrected to normal,,,,,,,,,,,,,,,,,,,,,,,,,,,,,,,,,,,,,,,,1842.500890300027,1842.5129323999863,1842.5129323999863,1842.5129323999863,1842.5129323999863,1842.5129323999863,1842.5129323999863,1845.9296195000643,['r'],1,[3.4068972000386566],[None],1845.9308088000398,1845.9579225999769,1845.9579225999769,1845.9579225999769,1847.459969599964,5,1.5132918999297544,5,1.5132918999297544,,,,,,,,sub51_NB,001,2026-01-26_15h27.29.055,recognitionstage,,2025.1.1,59.97454680401794,2026-01-26 15h28.20.665445 +0530,
,,,31,31,0,39,frames\Vid39_BB_T.png,frames\Vid39_L.png,['r'],1,[6.50272590003442],[None],5,1.3320569000206888,,,,,0,31,31,38,1847.4809204000048,,25,Male,Right handed,Corrected to normal,,,,,,,,,,,,,,,,,,,,,,,,,,,,,,,,,,,,,,,,1847.4684687999543,1847.4809204000048,1847.4809204000048,1847.4809204000048,1847.4809204000048,1847.4809204000048,1847.4809204000048,1853.9942727000453,['r'],1,[6.50272590003442],[None],1853.9951374999946,1854.0099178999662,1854.0099178999662,1854.0099178999662,1855.3436525999568,5,1.3320569000206888,5,1.3320569000206888,,,,,,,,sub51_NB,001,2026-01-26_15h27.29.055,recognitionstage,,2025.1.1,59.97454680401794,2026-01-26 15h28.20.665445 +0530,
,,,32,32,0,10,frames\Vid10_BB_T.png,frames\Vid10_L.png,['l'],1,[3.0939873999450356],[None],5,1.3649701999966055,,,,,0,32,32,9,1855.3937372999499,,25,Male,Right handed,Corrected to normal,,,,,,,,,,,,,,,,,,,,,,,,,,,,,,,,,,,,,,,,1855.384677199996,1855.3937372999499,1855.3937372999499,1855.3937372999499,1855.3937372999499,1855.3937372999499,1855.3937372999499,1858.4947120000143,['l'],1,[3.0939873999450356],[None],1858.4956364999525,1858.5106500999536,1858.5106500999536,1858.5106500999536,1859.8771354999626,5,1.3649701999966055,5,1.3649701999966055,,,,,,,,sub51_NB,001,2026-01-26_15h27.29.055,recognitionstage,,2025.1.1,59.97454680401794,2026-01-26 15h28.20.665445 +0530,
,,,33,33,0,30,frames\Vid30_EM_T.png,frames\Vid30_L.png,['l'],1,[5.741897900006734],[None],5,1.3143877999391407,,,,,0,33,33,29,1859.89782199997,,25,Male,Right handed,Corrected to normal,,,,,,,,,,,,,,,,,,,,,,,,,,,,,,,,,,,,,,,,1859.8866557000438,1859.89782199997,1859.89782199997,1859.89782199997,1859.89782199997,1859.89782199997,1859.89782199997,1865.6452575000003,['l'],1,[5.741897900006734],[None],1865.6462193999905,1865.6597458999604,1865.6597458999604,1865.6597458999604,1866.9772039999953,5,1.3143877999391407,5,1.3143877999391407,,,,,,,,sub51_NB,001,2026-01-26_15h27.29.055,recognitionstage,,2025.1.1,59.97454680401794,2026-01-26 15h28.20.665445 +0530,
,,,34,34,0,32,frames\Vid32_EM_T.png,frames\Vid32_L.png,['r'],1,[3.9741123999701813],[None],5,1.314856700017117,,,,,0,34,34,31,1867.0096160999965,,25,Male,Right handed,Corrected to normal,,,,,,,,,,,,,,,,,,,,,,,,,,,,,,,,,,,,,,,,1866.9893742999993,1867.0096160999965,1867.0096160999965,1867.0096160999965,1867.0096160999965,1867.0096160999965,1867.0096160999965,1870.9949432000285,['r'],1,[3.9741123999701813],[None],1870.9957304999698,1871.009651600034,1871.009651600034,1871.009651600034,1872.327181700035,5,1.314856700017117,5,1.314856700017117,,,,,,,,sub51_NB,001,2026-01-26_15h27.29.055,recognitionstage,,2025.1.1,59.97454680401794,2026-01-26 15h28.20.665445 +0530,
,,,35,35,0,14,frames\Vid14_BB_T.png,frames\Vid14_L.png,['l'],1,[2.8297533000586554],[None],5,1.315852400031872,,,,,0,35,35,13,1872.393891899963,,25,Male,Right handed,Corrected to normal,,,,,,,,,,,,,,,,,,,,,,,,,,,,,,,,,,,,,,,,1872.373982500052,1872.393891899963,1872.393891899963,1872.393891899963,1872.393891899963,1872.393891899963,1872.393891899963,1875.2275630000513,['l'],1,[2.8297533000586554],[None],1875.2284614000237,1875.243240699987,1875.243240699987,1875.243240699987,1876.5600336999632,5,1.315852400031872,5,1.315852400031872,,,,,,,,sub51_NB,001,2026-01-26_15h27.29.055,recognitionstage,,2025.1.1,59.97454680401794,2026-01-26 15h28.20.665445 +0530,
,,,36,36,0,20,frames\Vid20_EM_T.png,frames\Vid20_L.png,['l'],1,[6.891032600076869],[None],4,1.6311264999676496,,,,,0,36,36,19,1876.5810868999688,,25,Male,Right handed,Corrected to normal,,,,,,,,,,,,,,,,,,,,,,,,,,,,,,,,,,,,,,,,1876.5662638000213,1876.5810868999688,1876.5810868999688,1876.5810868999688,1876.5810868999688,1876.5810868999688,1876.5810868999688,1883.4791525000473,['l'],1,[6.891032600076869],[None],1883.4802125999704,1883.4928911000025,1883.4928911000025,1883.4928911000025,1885.1267652000533,4,1.6311264999676496,4,1.6311264999676496,,,,,,,,sub51_NB,001,2026-01-26_15h27.29.055,recognitionstage,,2025.1.1,59.97454680401794,2026-01-26 15h28.20.665445 +0530,
,,,37,37,0,25,frames\Vid25_BB_T.png,frames\Vid25_L.png,['l'],1,[3.0709216999821365],[None],5,1.2982464999658987,,,,,0,37,37,24,1885.1448257999728,,25,Male,Right handed,Corrected to normal,,,,,,,,,,,,,,,,,,,,,,,,,,,,,,,,,,,,,,,,1885.1366252000444,1885.1448257999728,1885.1448257999728,1885.1448257999728,1885.1448257999728,1885.1448257999728,1885.1448257999728,1888.2279345999705,['l'],1,[3.0709216999821365],[None],1888.228959399974,1888.2431503999978,1888.2431503999978,1888.2431503999978,1889.543842199957,5,1.2982464999658987,5,1.2982464999658987,,,,,,,,sub51_NB,001,2026-01-26_15h27.29.055,recognitionstage,,2025.1.1,59.97454680401794,2026-01-26 15h28.20.665445 +0530,
,,,38,38,0,17,frames\Vid17_BB_T.png,frames\Vid17_L.png,['l'],1,[3.7993372000055388],[None],5,1.3640916999429464,,,,,0,38,38,16,1889.5767738999566,,25,Male,Right handed,Corrected to normal,,,,,,,,,,,,,,,,,,,,,,,,,,,,,,,,,,,,,,,,1889.5677654000465,1889.5767738999566,1889.5767738999566,1889.5767738999566,1889.5767738999566,1889.5767738999566,1889.5767738999566,1893.3789056000533,['l'],1,[3.7993372000055388],[None],1893.3802451000083,1893.3931750999764,1893.3931750999764,1893.3931750999764,1894.7607462999877,5,1.3640916999429464,5,1.3640916999429464,,,,,,,,sub51_NB,001,2026-01-26_15h27.29.055,recognitionstage,,2025.1.1,59.97454680401794,2026-01-26 15h28.20.665445 +0530,
,,,39,39,0,28,frames\Vid28_EM_T.png,frames\Vid28_L.png,['l'],1,[2.1340361000038683],[None],5,1.581097700051032,,,,,0,39,39,27,1894.7941106000217,,25,Male,Right handed,Corrected to normal,,,,,,,,,,,,,,,,,,,,,,,,,,,,,,,,,,,,,,,,1894.7722184000304,1894.7941106000217,1894.7941106000217,1894.7941106000217,1894.7941106000217,1894.7941106000217,1894.7941106000217,1896.945296699996,['l'],1,[2.1340361000038683],[None],1896.9461385000031,1896.9593652000185,1896.9593652000185,1896.9593652000185,1898.5437154000392,5,1.581097700051032,5,1.581097700051032,,,,,,,,sub51_NB,001,2026-01-26_15h27.29.055,recognitionstage,,2025.1.1,59.97454680401794,2026-01-26 15h28.20.665445 +0530,
,,,,,,,,,,,,,,,,,,,,,,,,,25,Male,Right handed,Corrected to normal,,,,,,,,,,,,,,,,,,,,,,,,,,,,,,,,,,,,,,,,,,,,,,,,,,,,,,,,,,,,,1898.5438097000588,1898.5604896000586,1898.5604896000586,1904.9448026999598,space,6.375324900029227,None,sub51_NB,001,2026-01-26_15h27.29.055,recognitionstage,,2025.1.1,59.97454680401794,2026-01-26 15h28.20.665445 +0530,
