path,duration,is_repeat,thisN,thisTrialN,thisRepN,movie_id,target_img,lure_img,resp.keys,resp.corr,resp.rt,resp.duration,conf_radio.response,conf_radio.rt,movie.thisRepN,movie.thisTrialN,movie.thisN,movie.thisIndex,recogloop.thisRepN,recogloop.thisTrialN,recogloop.thisN,recogloop.thisIndex,thisRow.t,notes,age,gender,handedness,vision,caffeine_2h,alcohol_smoke_12h,demographics.started,demographics.stopped,Instructions.started,text1.started,key_resp.started,Instructions.stopped,key_resp.keys,key_resp.rt,key_resp.duration,instruction_2.started,text2.started,key_resp_2.started,instruction_2.stopped,key_resp_2.keys,key_resp_2.rt,key_resp_2.duration,Videos.started,movie_2.started,vigilance_resp.started,movie_2.stopped,Videos.stopped,movie.vigilance_resp.keys,vigilance_pressed,vigilance_correct,ISI.started,text.started,ISI.stopped,text.stopped,movie.vigilance_resp.rt,movie.vigilance_resp.duration,recognition.started,text_4.started,key_resp_3.started,recognition.stopped,key_resp_3.keys,key_resp_3.rt,key_resp_3.duration,recognition_task.started,leftimage.started,rightimage.started,resp.started,frames_question.started,right_label.started,left_label.started,recognition_task.stopped,recogloop.resp.keys,recogloop.resp.corr,recogloop.resp.rt,recogloop.resp.duration,confidence.started,conf_text.started,conf_radio.started,conf_label.started,confidence.stopped,recogloop.conf_radio.response,recogloop.conf_radio.rt,confidence,confidence_rt,thank_you.started,text_6.started,key_resp_4.started,thank_you.stopped,key_resp_4.keys,participant,session,date,expName,expVersion,psychopyVersion,frameRate,expStart,...103
,,,,,,,,,,,,,,,,,,,,,,,,,20,Male,Right handed,Normal,Caffeine consumed in last 2 hours?,Alcohol or smoking in last 12 hours?,0.017152099986560643,0.02084769998327829,,,,,,,,,,,,,,,,,,,,,,,,,,,,,,,,,,,,,,,,,,,,,,,,,,,,,,,,,,,,,,sub47_NB,001,2026-01-20_17h39.19.428,recognitionstage,,2025.1.1,59.95027724529132,2026-01-20 17h41.01.264920 +0530,
,,,,,,,,,,,,,,,,,,,,,,,,,20,Male,Right handed,Normal,,,,,0.020868999999947846,0.03620929998578504,0.03620929998578504,7.220712699985597,space,7.170847400004277,None,,,,,,,,,,,,,,,,,,,,,,,,,,,,,,,,,,,,,,,,,,,,,,,,,,,,,,,sub47_NB,001,2026-01-20_17h39.19.428,recognitionstage,,2025.1.1,59.95027724529132,2026-01-20 17h41.01.264920 +0530,
,,,,,,,,,,,,,,,,,,,,,,,,,20,Male,Right handed,Normal,,,,,,,,,,,,7.2207770999812055,7.237285299983341,7.237285299983341,15.505299099982949,space,8.257971799990628,None,,,,,,,,,,,,,,,,,,,,,,,,,,,,,,,,,,,,,,,,,,,,,,,,sub47_NB,001,2026-01-20_17h39.19.428,recognitionstage,,2025.1.1,59.95027724529132,2026-01-20 17h41.01.264920 +0530,
Trimmed_videos/natural_30.mp4,36,0,44,44,0,,,,,,,,,,0,44,44,33,,,,,1496.735527199984,,20,Male,Right handed,Normal,,,,,,,,,,,,,,,,,,,1496.6906185999978,1496.735527199984,1496.735527199984,1533.5352604000072,1533.3941022999934,None,0,1,1533.529144,1533.5352604000072,1536.0215420000022,1536.0371713000059,1.4877361999824643,None,1536.0216224000033,1536.0371713000059,1536.0371713000059,1561.9900705000036,space,25.946908500016434,None,,,,,,,,,,,,,,,,,,,,,,,,,,,sub47_NB,001,2026-01-20_17h39.19.428,recognitionstage,,2025.1.1,59.95027724529132,2026-01-20 17h41.01.264920 +0530,
,,,0,0,0,22,frames\Vid22_EM_T.png,frames\Vid22_L.png,['r'],0,[18.051662600017153],[None],3,8.363932200009003,,,,,0,0,0,21,1562.0515441999887,,20,Male,Right handed,Normal,,,,,,,,,,,,,,,,,,,,,,,,,,,,,,,,,,,,,,,,1562.0313985999965,1562.0515441999887,1562.0515441999887,1562.0515441999887,1562.0515441999887,1562.0515441999887,1562.0515441999887,1580.1054743999848,['r'],0,[18.051662600017153],[None],1580.106382500002,1580.1340628000034,1580.1340628000034,1580.1340628000034,1588.4873315999866,3,8.363932200009003,3,8.363932200009003,,,,,,sub47_NB,001,2026-01-20_17h39.19.428,recognitionstage,,2025.1.1,59.95027724529132,2026-01-20 17h41.01.264920 +0530,
,,,1,1,0,12,frames\Vid12_EM_T.png,frames\Vid12_L.png,['r'],1,[7.958868700021412],[None],5,6.663744699995732,,,,,0,1,1,11,1588.5684264999873,,20,Male,Right handed,Normal,,,,,,,,,,,,,,,,,,,,,,,,,,,,,,,,,,,,,,,,1588.5511785999988,1588.5684264999873,1588.5684264999873,1588.5684264999873,1588.5684264999873,1588.5684264999873,1588.5684264999873,1596.5385741000064,['r'],1,[7.958868700021412],[None],1596.539832599985,1596.5529280999908,1596.5529280999908,1596.5529280999908,1603.2202819999948,5,6.663744699995732,5,6.663744699995732,,,,,,sub47_NB,001,2026-01-20_17h39.19.428,recognitionstage,,2025.1.1,59.95027724529132,2026-01-20 17h41.01.264920 +0530,
,,,2,2,0,38,frames\Vid38_EM_T.png,frames\Vid38_L.png,['l'],0,[8.803117299976293],[None],5,2.1813346999988426,,,,,0,2,2,37,1603.2680646999797,,20,Male,Right handed,Normal,,,,,,,,,,,,,,,,,,,,,,,,,,,,,,,,,,,,,,,,1603.2570523000031,1603.2680646999797,1603.2680646999797,1603.2680646999797,1603.2680646999797,1603.2680646999797,1603.2680646999797,1612.0883909999975,['l'],0,[8.803117299976293],[None],1612.0890898999933,1612.1024816999852,1612.1024816999852,1612.1024816999852,1614.287473400007,5,2.1813346999988426,5,2.1813346999988426,,,,,,sub47_NB,001,2026-01-20_17h39.19.428,recognitionstage,,2025.1.1,59.95027724529132,2026-01-20 17h41.01.264920 +0530,
,,,3,3,0,39,frames\Vid39_BB_T.png,frames\Vid39_L.png,['r'],1,[6.39977839999483],[None],5,2.7513865000219084,,,,,0,3,3,38,1614.3194003999815,,20,Male,Right handed,Normal,,,,,,,,,,,,,,,,,,,,,,,,,,,,,,,,,,,,,,,,1614.3135970000003,1614.3194003999815,1614.3194003999815,1614.3194003999815,1614.3194003999815,1614.3194003999815,1614.3194003999815,1620.7209774999938,['r'],1,[6.39977839999483],[None],1620.7218685999978,1620.7365330999892,1620.7365330999892,1620.7365330999892,1623.486578299984,5,2.7513865000219084,5,2.7513865000219084,,,,,,sub47_NB,001,2026-01-20_17h39.19.428,recognitionstage,,2025.1.1,59.95027724529132,2026-01-20 17h41.01.264920 +0530,
,,,4,4,0,18,frames\Vid18_EM_T.png,frames\Vid18_L.png,['r'],1,[16.448176300007617],[None],4,2.563705700013088,,,,,0,4,4,17,1623.519222700008,,20,Male,Right handed,Normal,,,,,,,,,,,,,,,,,,,,,,,,,,,,,,,,,,,,,,,,1623.5106463999837,1623.519222700008,1623.519222700008,1623.519222700008,1623.519222700008,1623.519222700008,1623.519222700008,1639.9730229999986,['r'],1,[16.448176300007617],[None],1639.974259599985,1639.9860011999845,1639.9860011999845,1639.9860011999845,1642.5535339000053,4,2.563705700013088,4,2.563705700013088,,,,,,sub47_NB,001,2026-01-20_17h39.19.428,recognitionstage,,2025.1.1,59.95027724529132,2026-01-20 17h41.01.264920 +0530,
,,,5,5,0,30,frames\Vid30_EM_T.png,frames\Vid30_L.png,['l'],1,[10.045055399998091],[None],3,2.248363699996844,,,,,0,5,5,29,1642.5860721000063,,20,Male,Right handed,Normal,,,,,,,,,,,,,,,,,,,,,,,,,,,,,,,,,,,,,,,,1642.579180300003,1642.5860721000063,1642.5860721000063,1642.5860721000063,1642.5860721000063,1642.5860721000063,1642.5860721000063,1652.6377155999944,['l'],1,[10.045055399998091],[None],1652.6385007000063,1652.6527016999898,1652.6527016999898,1652.6527016999898,1654.9039692999795,3,2.248363699996844,3,2.248363699996844,,,,,,sub47_NB,001,2026-01-20_17h39.19.428,recognitionstage,,2025.1.1,59.95027724529132,2026-01-20 17h41.01.264920 +0530,
,,,6,6,0,8,frames\Vid8_BB_T.png,frames\Vid8_L.png,['r'],1,[5.509186500014039],[None],5,1.8314189999946393,,,,,0,6,6,7,1654.9700792999938,,20,Male,Right handed,Normal,,,,,,,,,,,,,,,,,,,,,,,,,,,,,,,,,,,,,,,,1654.9571740999818,1654.9700792999938,1654.9700792999938,1654.9700792999938,1654.9700792999938,1654.9700792999938,1654.9700792999938,1660.4885378000035,['r'],1,[5.509186500014039],[None],1660.4895727999974,1660.5028835999838,1660.5028835999838,1660.5028835999838,1662.3368793999834,5,1.8314189999946393,5,1.8314189999946393,,,,,,sub47_NB,001,2026-01-20_17h39.19.428,recognitionstage,,2025.1.1,59.95027724529132,2026-01-20 17h41.01.264920 +0530,
,,,7,7,0,11,frames\Vid11_EM_T.png,frames\Vid11_L.png,['r'],1,[3.3532708999991883],[None],5,2.0653745000017807,,,,,0,7,7,10,1662.4059849999903,,20,Male,Right handed,Normal,,,,,,,,,,,,,,,,,,,,,,,,,,,,,,,,,,,,,,,,1662.3943335999793,1662.4059849999903,1662.4059849999903,1662.4059849999903,1662.4059849999903,1662.4059849999903,1662.4059849999903,1665.7706620999961,['r'],1,[3.3532708999991883],[None],1665.7713959999965,1665.7865066999802,1665.7865066999802,1665.7865066999802,1667.8538447000028,5,2.0653745000017807,5,2.0653745000017807,,,,,,sub47_NB,001,2026-01-20_17h39.19.428,recognitionstage,,2025.1.1,59.95027724529132,2026-01-20 17h41.01.264920 +0530,
,,,8,8,0,14,frames\Vid14_BB_T.png,frames\Vid14_L.png,['r'],1,[6.052648000011686],[None],5,1.4151708999997936,,,,,0,8,8,13,1667.922486800002,,20,Male,Right handed,Normal,,,,,,,,,,,,,,,,,,,,,,,,,,,,,,,,,,,,,,,,1667.9126418999804,1667.922486800002,1667.922486800002,1667.922486800002,1667.922486800002,1667.922486800002,1667.922486800002,1673.9879568000033,['r'],1,[6.052648000011686],[None],1673.9889801999961,1674.0028655999922,1674.0028655999922,1674.0028655999922,1675.4202917999937,5,1.4151708999997936,5,1.4151708999997936,,,,,,sub47_NB,001,2026-01-20_17h39.19.428,recognitionstage,,2025.1.1,59.95027724529132,2026-01-20 17h41.01.264920 +0530,
,,,9,9,0,31,frames\Vid31_EM_T.png,frames\Vid31_L.png,['r'],1,[3.03979700000491],[None],5,1.5151821000035852,,,,,0,9,9,30,1675.4553822999878,,20,Male,Right handed,Normal,,,,,,,,,,,,,,,,,,,,,,,,,,,,,,,,,,,,,,,,1675.4457089999923,1675.4553822999878,1675.4553822999878,1675.4553822999878,1675.4553822999878,1675.4553822999878,1675.4553822999878,1678.5045817999926,['r'],1,[3.03979700000491],[None],1678.5052951999824,1678.519293099991,1678.519293099991,1678.519293099991,1680.03785719999,5,1.5151821000035852,5,1.5151821000035852,,,,,,sub47_NB,001,2026-01-20_17h39.19.428,recognitionstage,,2025.1.1,59.95027724529132,2026-01-20 17h41.01.264920 +0530,
,,,10,10,0,10,frames\Vid10_BB_T.png,frames\Vid10_L.png,['r'],1,[2.960151400009636],[None],5,1.297966300015105,,,,,0,10,10,9,1680.1031696999853,,20,Male,Right handed,Normal,,,,,,,,,,,,,,,,,,,,,,,,,,,,,,,,,,,,,,,,1680.0949920999992,1680.1031696999853,1680.1031696999853,1680.1031696999853,1680.1031696999853,1680.1031696999853,1680.1031696999853,1683.071320899995,['r'],1,[2.960151400009636],[None],1683.072317299986,1683.0864897999854,1683.0864897999854,1683.0864897999854,1684.3874287999934,5,1.297966300015105,5,1.297966300015105,,,,,,sub47_NB,001,2026-01-20_17h39.19.428,recognitionstage,,2025.1.1,59.95027724529132,2026-01-20 17h41.01.264920 +0530,
,,,11,11,0,23,frames\Vid23_EM_T.png,frames\Vid23_L.png,['r'],1,[5.936274300009245],[None],5,1.7802025999990292,,,,,0,11,11,22,1684.4390928999928,,20,Male,Right handed,Normal,,,,,,,,,,,,,,,,,,,,,,,,,,,,,,,,,,,,,,,,1684.4169754000031,1684.4390928999928,1684.4390928999928,1684.4390928999928,1684.4390928999928,1684.4390928999928,1684.4390928999928,1690.3890008000017,['r'],1,[5.936274300009245],[None],1690.3900573999854,1690.4025060999847,1690.4025060999847,1690.4025060999847,1692.1874189999944,5,1.7802025999990292,5,1.7802025999990292,,,,,,sub47_NB,001,2026-01-20_17h39.19.428,recognitionstage,,2025.1.1,59.95027724529132,2026-01-20 17h41.01.264920 +0530,
,,,12,12,0,19,frames\Vid19_BB_T.png,frames\Vid19_L.png,['l'],1,[5.852100799995242],[None],5,1.615224399982253,,,,,0,12,12,18,1692.2194016999856,,20,Male,Right handed,Normal,,,,,,,,,,,,,,,,,,,,,,,,,,,,,,,,,,,,,,,,1692.2124036999885,1692.2194016999856,1692.2194016999856,1692.2194016999856,1692.2194016999856,1692.2194016999856,1692.2194016999856,1698.0877004000067,['l'],1,[5.852100799995242],[None],1698.0886486999807,1698.1028867999848,1698.1028867999848,1698.1028867999848,1699.7202691999846,5,1.615224399982253,5,1.615224399982253,,,,,,sub47_NB,001,2026-01-20_17h39.19.428,recognitionstage,,2025.1.1,59.95027724529132,2026-01-20 17h41.01.264920 +0530,
,,,13,13,0,15,frames\Vid15_BB_T.png,frames\Vid15_L.png,['r'],1,[2.628095000021858],[None],5,1.5334610000136308,,,,,0,13,13,14,1699.8032100999844,,20,Male,Right handed,Normal,,,,,,,,,,,,,,,,,,,,,,,,,,,,,,,,,,,,,,,,1699.7813011999824,1699.8032100999844,1699.8032100999844,1699.8032100999844,1699.8032100999844,1699.8032100999844,1699.8032100999844,1702.437604799983,['r'],1,[2.628095000021858],[None],1702.4385440000042,1702.4530107000028,1702.4530107000028,1702.4530107000028,1703.987206699996,5,1.5334610000136308,5,1.5334610000136308,,,,,,sub47_NB,001,2026-01-20_17h39.19.428,recognitionstage,,2025.1.1,59.95027724529132,2026-01-20 17h41.01.264920 +0530,
,,,14,14,0,34,frames\Vid34_BB_T.png,frames\Vid34_L.png,['r'],1,[15.69702409999445],[None],2,2.530773299979046,,,,,0,14,14,33,1704.0221616000053,,20,Male,Right handed,Normal,,,,,,,,,,,,,,,,,,,,,,,,,,,,,,,,,,,,,,,,1704.0111182999972,1704.0221616000053,1704.0221616000053,1704.0221616000053,1704.0221616000053,1704.0221616000053,1704.0221616000053,1719.7219519999926,['r'],1,[15.69702409999445],[None],1719.7229177999834,1719.7363568999863,1719.7363568999863,1719.7363568999863,1722.270744999987,2,2.530773299979046,2,2.530773299979046,,,,,,sub47_NB,001,2026-01-20_17h39.19.428,recognitionstage,,2025.1.1,59.95027724529132,2026-01-20 17h41.01.264920 +0530,
,,,15,15,0,3,frames\Vid3_BB_T.png,frames\Vid3_L.png,['l'],1,[6.678950100002112],[None],5,1.9317090999975335,,,,,0,15,15,2,1722.3363786999835,,20,Male,Right handed,Normal,,,,,,,,,,,,,,,,,,,,,,,,,,,,,,,,,,,,,,,,1722.3238858999975,1722.3363786999835,1722.3363786999835,1722.3363786999835,1722.3363786999835,1722.3363786999835,1722.3363786999835,1729.0215998000058,['l'],1,[6.678950100002112],[None],1729.022481299995,1729.0359958999907,1729.0359958999907,1729.0359958999907,1730.9704553000047,5,1.9317090999975335,5,1.9317090999975335,,,,,,sub47_NB,001,2026-01-20_17h39.19.428,recognitionstage,,2025.1.1,59.95027724529132,2026-01-20 17h41.01.264920 +0530,
,,,16,16,0,9,frames\Vid9_EM_T.png,frames\Vid9_L.png,['l'],0,[13.704396899993299],[None],2,1.8807355999888387,,,,,0,16,16,8,1731.0389837999828,,20,Male,Right handed,Normal,,,,,,,,,,,,,,,,,,,,,,,,,,,,,,,,,,,,,,,,1731.0203713999945,1731.0389837999828,1731.0389837999828,1731.0389837999828,1731.0389837999828,1731.0389837999828,1731.0389837999828,1744.7557270999823,['l'],0,[13.704396899993299],[None],1744.7569632999948,1744.769344500004,1744.769344500004,1744.769344500004,1746.6535755000077,2,1.8807355999888387,2,1.8807355999888387,,,,,,sub47_NB,001,2026-01-20_17h39.19.428,recognitionstage,,2025.1.1,59.95027724529132,2026-01-20 17h41.01.264920 +0530,
,,,17,17,0,13,frames\Vid13_BB_T.png,frames\Vid13_L.png,['r'],1,[7.532651599991368],[None],4,1.09803940000711,,,,,0,17,17,12,1746.7225891999842,,20,Male,Right handed,Normal,,,,,,,,,,,,,,,,,,,,,,,,,,,,,,,,,,,,,,,,1746.7036594999954,1746.7225891999842,1746.7225891999842,1746.7225891999842,1746.7225891999842,1746.7225891999842,1746.7225891999842,1754.271789499995,['r'],1,[7.532651599991368],[None],1754.2728881000075,1754.300869300001,1754.300869300001,1754.300869300001,1755.3869080999866,4,1.09803940000711,4,1.09803940000711,,,,,,sub47_NB,001,2026-01-20_17h39.19.428,recognitionstage,,2025.1.1,59.95027724529132,2026-01-20 17h41.01.264920 +0530,
,,,18,18,0,7,frames\Vid7_EM_T.png,frames\Vid7_L.png,['l'],1,[10.007462499983376],[None],4,1.8972161999845412,,,,,0,18,18,6,1755.4558565999905,,20,Male,Right handed,Normal,,,,,,,,,,,,,,,,,,,,,,,,,,,,,,,,,,,,,,,,1755.4414567000058,1755.4558565999905,1755.4558565999905,1755.4558565999905,1755.4558565999905,1755.4558565999905,1755.4558565999905,1765.4724006000033,['l'],1,[10.007462499983376],[None],1765.4734390999947,1765.4859427000047,1765.4859427000047,1765.4859427000047,1767.3867092999863,4,1.8972161999845412,4,1.8972161999845412,,,,,,sub47_NB,001,2026-01-20_17h39.19.428,recognitionstage,,2025.1.1,59.95027724529132,2026-01-20 17h41.01.264920 +0530,
,,,19,19,0,2,frames\Vid2_BB_T.png,frames\Vid2_L.png,['l'],1,[19.01521870002034],[None],4,1.8304142999986652,,,,,0,19,19,1,1767.456098900002,,20,Male,Right handed,Normal,,,,,,,,,,,,,,,,,,,,,,,,,,,,,,,,,,,,,,,,1767.4401570000045,1767.456098900002,1767.456098900002,1767.456098900002,1767.456098900002,1767.456098900002,1767.456098900002,1786.4724569999962,['l'],1,[19.01521870002034],[None],1786.4735183999874,1786.4858357000048,1786.4858357000048,1786.4858357000048,1788.3198890000058,4,1.8304142999986652,4,1.8304142999986652,,,,,,sub47_NB,001,2026-01-20_17h39.19.428,recognitionstage,,2025.1.1,59.95027724529132,2026-01-20 17h41.01.264920 +0530,
,,,20,20,0,27,frames\Vid27_BB_T.png,frames\Vid27_L.png,['l'],1,[4.379723400023067],[None],4,1.2814322000194807,,,,,0,20,20,26,1788.355506699998,,20,Male,Right handed,Normal,,,,,,,,,,,,,,,,,,,,,,,,,,,,,,,,,,,,,,,,1788.3432304000016,1788.355506699998,1788.355506699998,1788.355506699998,1788.355506699998,1788.355506699998,1788.355506699998,1792.738451799989,['l'],1,[4.379723400023067],[None],1792.7392047999892,1792.7524932999804,1792.7524932999804,1792.7524932999804,1794.0369296999997,4,1.2814322000194807,4,1.2814322000194807,,,,,,sub47_NB,001,2026-01-20_17h39.19.428,recognitionstage,,2025.1.1,59.95027724529132,2026-01-20 17h41.01.264920 +0530,
,,,21,21,0,1,frames\Vid1_EM_T.png,frames\Vid1_L.png,['l'],1,[3.616344299982302],[None],5,1.2642613999778405,,,,,0,21,21,0,1794.1029617000022,,20,Male,Right handed,Normal,,,,,,,,,,,,,,,,,,,,,,,,,,,,,,,,,,,,,,,,1794.0959382999863,1794.1029617000022,1794.1029617000022,1794.1029617000022,1794.1029617000022,1794.1029617000022,1794.1029617000022,1797.7220163999882,['l'],1,[3.616344299982302],[None],1797.7230475999822,1797.7511487999873,1797.7511487999873,1797.7511487999873,1799.0036085000029,5,1.2642613999778405,5,1.2642613999778405,,,,,,sub47_NB,001,2026-01-20_17h39.19.428,recognitionstage,,2025.1.1,59.95027724529132,2026-01-20 17h41.01.264920 +0530,
,,,22,22,0,21,frames\Vid21_BB_T.png,frames\Vid21_L.png,['l'],1,[3.9920496999984607],[None],5,1.1649103999952786,,,,,0,22,22,20,1799.039192199998,,20,Male,Right handed,Normal,,,,,,,,,,,,,,,,,,,,,,,,,,,,,,,,,,,,,,,,1799.0287809000001,1799.039192199998,1799.039192199998,1799.039192199998,1799.039192199998,1799.039192199998,1799.039192199998,1803.0378652999934,['l'],1,[3.9920496999984607],[None],1803.03891079998,1803.0529752000002,1803.0529752000002,1803.0529752000002,1804.2203428999928,5,1.1649103999952786,5,1.1649103999952786,,,,,,sub47_NB,001,2026-01-20_17h39.19.428,recognitionstage,,2025.1.1,59.95027724529132,2026-01-20 17h41.01.264920 +0530,
,,,23,23,0,32,frames\Vid32_EM_T.png,frames\Vid32_L.png,['r'],1,[2.586470200010808],[None],5,1.2317086000111885,,,,,0,23,23,31,1804.2528464999923,,20,Male,Right handed,Normal,,,,,,,,,,,,,,,,,,,,,,,,,,,,,,,,,,,,,,,,1804.244436399982,1804.2528464999923,1804.2528464999923,1804.2528464999923,1804.2528464999923,1804.2528464999923,1804.2528464999923,1806.854770200007,['r'],1,[2.586470200010808],[None],1806.8555217999965,1806.8695074999996,1806.8695074999996,1806.8695074999996,1808.103548199986,5,1.2317086000111885,5,1.2317086000111885,,,,,,sub47_NB,001,2026-01-20_17h39.19.428,recognitionstage,,2025.1.1,59.95027724529132,2026-01-20 17h41.01.264920 +0530,
,,,24,24,0,29,frames\Vid29_BB_T.png,frames\Vid29_L.png,['r'],1,[2.910441100015305],[None],5,0.9307668000110425,,,,,0,24,24,28,1808.1528311999864,,20,Male,Right handed,Normal,,,,,,,,,,,,,,,,,,,,,,,,,,,,,,,,,,,,,,,,1808.131741899997,1808.1528311999864,1808.1528311999864,1808.1528311999864,1808.1528311999864,1808.1528311999864,1808.1528311999864,1811.0722607999924,['r'],1,[2.910441100015305],[None],1811.0735967000073,1811.086116999999,1811.086116999999,1811.086116999999,1812.0198414000042,5,0.9307668000110425,5,0.9307668000110425,,,,,,sub47_NB,001,2026-01-20_17h39.19.428,recognitionstage,,2025.1.1,59.95027724529132,2026-01-20 17h41.01.264920 +0530,
,,,25,25,0,4,frames\Vid4_EM_T.png,frames\Vid4_L.png,['r'],0,[17.54452699999092],[None],4,1.2476278999820352,,,,,0,25,25,3,1812.0868016000022,,20,Male,Right handed,Normal,,,,,,,,,,,,,,,,,,,,,,,,,,,,,,,,,,,,,,,,1812.0787557000003,1812.0868016000022,1812.0868016000022,1812.0868016000022,1812.0868016000022,1812.0868016000022,1812.0868016000022,1829.638453499996,['r'],0,[17.54452699999092],[None],1829.6394115999865,1829.6527892999875,1829.6527892999875,1829.6527892999875,1830.9033778999874,4,1.2476278999820352,4,1.2476278999820352,,,,,,sub47_NB,001,2026-01-20_17h39.19.428,recognitionstage,,2025.1.1,59.95027724529132,2026-01-20 17h41.01.264920 +0530,
,,,26,26,0,20,frames\Vid20_EM_T.png,frames\Vid20_L.png,['l'],1,[2.7885088000039104],[None],4,1.098258399986662,,,,,0,26,26,19,1830.9387061999878,,20,Male,Right handed,Normal,,,,,,,,,,,,,,,,,,,,,,,,,,,,,,,,,,,,,,,,1830.9219355999958,1830.9387061999878,1830.9387061999878,1830.9387061999878,1830.9387061999878,1830.9387061999878,1830.9387061999878,1833.737734299997,['l'],1,[2.7885088000039104],[None],1833.7386823999987,1833.7529380999913,1833.7529380999913,1833.7529380999913,1834.8534289999807,4,1.098258399986662,4,1.098258399986662,,,,,,sub47_NB,001,2026-01-20_17h39.19.428,recognitionstage,,2025.1.1,59.95027724529132,2026-01-20 17h41.01.264920 +0530,
,,,27,27,0,33,frames\Vid33_BB_T.png,frames\Vid33_L.png,['r'],1,[6.9614890000084415],[None],4,1.2495591999904718,,,,,0,27,27,32,1834.8857263999816,,20,Male,Right handed,Normal,,,,,,,,,,,,,,,,,,,,,,,,,,,,,,,,,,,,,,,,1834.8757334999973,1834.8857263999816,1834.8857263999816,1834.8857263999816,1834.8857263999816,1834.8857263999816,1834.8857263999816,1841.8542775999813,['r'],1,[6.9614890000084415],[None],1841.8550732999865,1841.8696314999834,1841.8696314999834,1841.8696314999834,1843.119624199986,4,1.2495591999904718,4,1.2495591999904718,,,,,,sub47_NB,001,2026-01-20_17h39.19.428,recognitionstage,,2025.1.1,59.95027724529132,2026-01-20 17h41.01.264920 +0530,
,,,28,28,0,36,frames\Vid36_BB_T.png,frames\Vid36_L.png,['r'],1,[42.822887899994384],[None],1,2.0956677999929525,,,,,0,28,28,35,1843.1524797999882,,20,Male,Right handed,Normal,,,,,,,,,,,,,,,,,,,,,,,,,,,,,,,,,,,,,,,,1843.1457873999898,1843.1524797999882,1843.1524797999882,1843.1524797999882,1843.1524797999882,1843.1524797999882,1843.1524797999882,1885.9898553999956,['r'],1,[42.822887899994384],[None],1885.9914685999975,1886.01755639998,1886.01755639998,1886.01755639998,1888.1041351000022,1,2.0956677999929525,1,2.0956677999929525,,,,,,sub47_NB,001,2026-01-20_17h39.19.428,recognitionstage,,2025.1.1,59.95027724529132,2026-01-20 17h41.01.264920 +0530,
,,,29,29,0,16,frames\Vid16_EM_T.png,frames\Vid16_L.png,['r'],1,[9.181255900010001],[None],2,1.7467077000183053,,,,,0,29,29,15,1888.1701162999962,,20,Male,Right handed,Normal,,,,,,,,,,,,,,,,,,,,,,,,,,,,,,,,,,,,,,,,1888.1605885000026,1888.1701162999962,1888.1701162999962,1888.1701162999962,1888.1701162999962,1888.1701162999962,1888.1701162999962,1897.3557710000023,['r'],1,[9.181255900010001],[None],1897.3567397999868,1897.3692317999958,1897.3692317999958,1897.3692317999958,1899.1214468999824,2,1.7467077000183053,2,1.7467077000183053,,,,,,sub47_NB,001,2026-01-20_17h39.19.428,recognitionstage,,2025.1.1,59.95027724529132,2026-01-20 17h41.01.264920 +0530,
,,,30,30,0,37,frames\Vid37_BB_T.png,frames\Vid37_L.png,['l'],1,[3.6191908000037074],[None],5,0.9978483000013512,,,,,0,30,30,36,1899.1719724999857,,20,Male,Right handed,Normal,,,,,,,,,,,,,,,,,,,,,,,,,,,,,,,,,,,,,,,,1899.1518869999854,1899.1719724999857,1899.1719724999857,1899.1719724999857,1899.1719724999857,1899.1719724999857,1899.1719724999857,1902.8045965000056,['l'],1,[3.6191908000037074],[None],1902.8056775000005,1902.8197372999857,1902.8197372999857,1902.8197372999857,1903.821219000005,5,0.9978483000013512,5,0.9978483000013512,,,,,,sub47_NB,001,2026-01-20_17h39.19.428,recognitionstage,,2025.1.1,59.95027724529132,2026-01-20 17h41.01.264920 +0530,
,,,31,31,0,28,frames\Vid28_EM_T.png,frames\Vid28_L.png,['l'],1,[3.8906104000052437],[None],5,0.9157100000011269,,,,,0,31,31,27,1903.8526579999889,,20,Male,Right handed,Normal,,,,,,,,,,,,,,,,,,,,,,,,,,,,,,,,,,,,,,,,1903.846103399992,1903.8526579999889,1903.8526579999889,1903.8526579999889,1903.8526579999889,1903.8526579999889,1903.8526579999889,1907.754649999988,['l'],1,[3.8906104000052437],[None],1907.755559399986,1907.7853509999986,1907.7853509999986,1907.7853509999986,1908.6866232999892,5,0.9157100000011269,5,0.9157100000011269,,,,,,sub47_NB,001,2026-01-20_17h39.19.428,recognitionstage,,2025.1.1,59.95027724529132,2026-01-20 17h41.01.264920 +0530,
,,,32,32,0,26,frames\Vid26_EM_T.png,frames\Vid26_L.png,['r'],0,[7.791336700000102],[None],5,1.4491686000255868,,,,,0,32,32,25,1908.7358841999958,,20,Male,Right handed,Normal,,,,,,,,,,,,,,,,,,,,,,,,,,,,,,,,,,,,,,,,1908.7149359000032,1908.7358841999958,1908.7358841999958,1908.7358841999958,1908.7358841999958,1908.7358841999958,1908.7358841999958,1916.538037099992,['r'],0,[7.791336700000102],[None],1916.5390733999957,1916.5529749999987,1916.5529749999987,1916.5529749999987,1918.0032932999893,5,1.4491686000255868,5,1.4491686000255868,,,,,,sub47_NB,001,2026-01-20_17h39.19.428,recognitionstage,,2025.1.1,59.95027724529132,2026-01-20 17h41.01.264920 +0530,
,,,33,33,0,25,frames\Vid25_BB_T.png,frames\Vid25_L.png,['l'],1,[4.651309700013371],[None],5,1.0653942999779247,,,,,0,33,33,24,1918.0360479000083,,20,Male,Right handed,Normal,,,,,,,,,,,,,,,,,,,,,,,,,,,,,,,,,,,,,,,,1918.028208600008,1918.0360479000083,1918.0360479000083,1918.0360479000083,1918.0360479000083,1918.0360479000083,1918.0360479000083,1922.6887214999879,['l'],1,[4.651309700013371],[None],1922.6897266999877,1922.7025330000033,1922.7025330000033,1922.7025330000033,1923.7700346999918,5,1.0653942999779247,5,1.0653942999779247,,,,,,sub47_NB,001,2026-01-20_17h39.19.428,recognitionstage,,2025.1.1,59.95027724529132,2026-01-20 17h41.01.264920 +0530,
,,,34,34,0,6,frames\Vid6_BB_T.png,frames\Vid6_L.png,['r'],1,[4.098750999983167],[None],5,1.0645386999822222,,,,,0,34,34,5,1923.836618900008,,20,Male,Right handed,Normal,,,,,,,,,,,,,,,,,,,,,,,,,,,,,,,,,,,,,,,,1923.8270860000048,1923.836618900008,1923.836618900008,1923.836618900008,1923.836618900008,1923.836618900008,1923.836618900008,1927.9379891999997,['r'],1,[4.098750999983167],[None],1927.9389359999914,1927.9531043999887,1927.9531043999887,1927.9531043999887,1929.0202102999901,5,1.0645386999822222,5,1.0645386999822222,,,,,,sub47_NB,001,2026-01-20_17h39.19.428,recognitionstage,,2025.1.1,59.95027724529132,2026-01-20 17h41.01.264920 +0530,
,,,35,35,0,40,frames\Vid40_EM_T.png,frames\Vid40_L.png,['l'],1,[6.407376899995143],[None],4,1.197924999985844,,,,,0,35,35,39,1929.0559995000076,,20,Male,Right handed,Normal,,,,,,,,,,,,,,,,,,,,,,,,,,,,,,,,,,,,,,,,1929.0402933000005,1929.0559995000076,1929.0559995000076,1929.0559995000076,1929.0559995000076,1929.0559995000076,1929.0559995000076,1935.4718301999965,['l'],1,[6.407376899995143],[None],1935.4731228000019,1935.4859543000057,1935.4859543000057,1935.4859543000057,1936.686840999988,4,1.197924999985844,4,1.197924999985844,,,,,,sub47_NB,001,2026-01-20_17h39.19.428,recognitionstage,,2025.1.1,59.95027724529132,2026-01-20 17h41.01.264920 +0530,
,,,36,36,0,24,frames\Vid24_BB_T.png,frames\Vid24_L.png,['r'],1,[4.455515099980403],[None],5,0.7805642999883275,,,,,0,36,36,23,1936.7358338999911,,20,Male,Right handed,Normal,,,,,,,,,,,,,,,,,,,,,,,,,,,,,,,,,,,,,,,,1936.7146153000067,1936.7358338999911,1936.7358338999911,1936.7358338999911,1936.7358338999911,1936.7358338999911,1936.7358338999911,1941.2053272000048,['r'],1,[4.455515099980403],[None],1941.2067662999907,1941.2349320999929,1941.2349320999929,1941.2349320999929,1942.0035969000019,5,0.7805642999883275,5,0.7805642999883275,,,,,,sub47_NB,001,2026-01-20_17h39.19.428,recognitionstage,,2025.1.1,59.95027724529132,2026-01-20 17h41.01.264920 +0530,
,,,37,37,0,35,frames\Vid35_EM_T.png,frames\Vid35_L.png,['r'],1,[6.139233099995181],[None],4,0.9817603999981657,,,,,0,37,37,34,1942.03607989999,,20,Male,Right handed,Normal,,,,,,,,,,,,,,,,,,,,,,,,,,,,,,,,,,,,,,,,1942.0266602000047,1942.03607989999,1942.03607989999,1942.03607989999,1942.03607989999,1942.03607989999,1942.03607989999,1948.1879155999923,['r'],1,[6.139233099995181],[None],1948.1887276000052,1948.2026197999949,1948.2026197999949,1948.2026197999949,1949.187088000006,4,0.9817603999981657,4,0.9817603999981657,,,,,,sub47_NB,001,2026-01-20_17h39.19.428,recognitionstage,,2025.1.1,59.95027724529132,2026-01-20 17h41.01.264920 +0530,
,,,38,38,0,5,frames\Vid5_EM_T.png,frames\Vid5_L.png,['l'],1,[15.89832400000887],[None],5,1.1478336000000127,,,,,0,38,38,4,1949.2530044000014,,20,Male,Right handed,Normal,,,,,,,,,,,,,,,,,,,,,,,,,,,,,,,,,,,,,,,,1949.233401000005,1949.2530044000014,1949.2530044000014,1949.2530044000014,1949.2530044000014,1949.2530044000014,1949.2530044000014,1965.1549135999812,['l'],1,[15.89832400000887],[None],1965.1561378999904,1965.1695971000008,1965.1695971000008,1965.1695971000008,1966.3202061000047,5,1.1478336000000127,5,1.1478336000000127,,,,,,sub47_NB,001,2026-01-20_17h39.19.428,recognitionstage,,2025.1.1,59.95027724529132,2026-01-20 17h41.01.264920 +0530,
,,,39,39,0,17,frames\Vid17_BB_T.png,frames\Vid17_L.png,['r'],1,[19.30764260000433],[None],1,1.013742999988608,,,,,0,39,39,16,1966.3717726999894,,20,Male,Right handed,Normal,,,,,,,,,,,,,,,,,,,,,,,,,,,,,,,,,,,,,,,,1966.3592205999885,1966.3717726999894,1966.3717726999894,1966.3717726999894,1966.3717726999894,1966.3717726999894,1966.3717726999894,1985.689521399996,['r'],1,[19.30764260000433],[None],1985.69063919998,1985.7026398000016,1985.7026398000016,1985.7026398000016,1986.7205713999865,1,1.013742999988608,1,1.013742999988608,,,,,,sub47_NB,001,2026-01-20_17h39.19.428,recognitionstage,,2025.1.1,59.95027724529132,2026-01-20 17h41.01.264920 +0530,
,,,,,,,,,,,,,,,,,,,,,,,,,20,Male,Right handed,Normal,,,,,,,,,,,,,,,,,,,,,,,,,,,,,,,,,,,,,,,,,,,,,,,,,,,,,,,,,,,,,1986.7206477999862,1986.7367477999942,1986.7367477999942,2006.722708699992,None,sub47_NB,001,2026-01-20_17h39.19.428,recognitionstage,,2025.1.1,59.95027724529132,2026-01-20 17h41.01.264920 +0530,
