path,duration,is_repeat,thisN,thisTrialN,thisRepN,movie_id,target_img,lure_img,resp.keys,resp.corr,resp.rt,resp.duration,conf_radio.response,conf_radio.rt,movie.thisRepN,movie.thisTrialN,movie.thisN,movie.thisIndex,recogloop.thisRepN,recogloop.thisTrialN,recogloop.thisN,recogloop.thisIndex,thisRow.t,notes,age,gender,handedness,vision,caffeine_2h,alcohol_smoke_12h,demographics.started,demographics.stopped,Instructions.started,text1.started,key_resp.started,Instructions.stopped,key_resp.keys,key_resp.rt,key_resp.duration,instruction_2.started,text2.started,key_resp_2.started,instruction_2.stopped,key_resp_2.keys,key_resp_2.rt,key_resp_2.duration,Videos.started,movie_2.started,vigilance_resp.started,movie_2.stopped,Videos.stopped,movie.vigilance_resp.keys,vigilance_pressed,vigilance_correct,ISI.started,text.started,text.stopped,ISI.stopped,movie.vigilance_resp.rt,movie.vigilance_resp.duration,recognition.started,text_4.started,key_resp_3.started,recognition.stopped,key_resp_3.keys,key_resp_3.rt,key_resp_3.duration,recognition_task.started,leftimage.started,rightimage.started,resp.started,frames_question.started,right_label.started,left_label.started,recognition_task.stopped,recogloop.resp.keys,recogloop.resp.corr,recogloop.resp.rt,recogloop.resp.duration,confidence.started,conf_text.started,conf_radio.started,conf_label.started,confidence.stopped,recogloop.conf_radio.response,recogloop.conf_radio.rt,confidence,confidence_rt,thank_you.started,text_6.started,key_resp_4.started,text_6.stopped,key_resp_4.stopped,thank_you.stopped,key_resp_4.keys,participant,session,date,expName,expVersion,psychopyVersion,frameRate,expStart,...105
,,,,,,,,,,,,,,,,,,,,,,,,,19,Female,Left Handed,Corrected to normal,Caffeine consumed in last 2 hours?,Alcohol or smoking in last 12 hours?,0.01939559995662421,0.08156779990531504,,,,,,,,,,,,,,,,,,,,,,,,,,,,,,,,,,,,,,,,,,,,,,,,,,,,,,,,,,,,,,,,sub49_NB,001,2026-01-26_11h34.19.625,recognitionstage,,2025.1.1,59.89921359676144,2026-01-26 11h35.15.104201 +0530,
,,,,,,,,,,,,,,,,,,,,,,,,,19,Female,Left Handed,Corrected to normal,,,,,0.08160009991843253,0.10311139991972595,0.10311139991972595,25.458500999957323,space,25.35400070005562,None,,,,,,,,,,,,,,,,,,,,,,,,,,,,,,,,,,,,,,,,,,,,,,,,,,,,,,,,,sub49_NB,001,2026-01-26_11h34.19.625,recognitionstage,,2025.1.1,59.89921359676144,2026-01-26 11h35.15.104201 +0530,
,,,,,,,,,,,,,,,,,,,,,,,,,19,Female,Left Handed,Corrected to normal,,,,,,,,,,,,25.458557899924926,25.47237909992691,25.47237909992691,37.323864199919626,space,11.848621599958278,None,,,,,,,,,,,,,,,,,,,,,,,,,,,,,,,,,,,,,,,,,,,,,,,,,,sub49_NB,001,2026-01-26_11h34.19.625,recognitionstage,,2025.1.1,59.89921359676144,2026-01-26 11h35.15.104201 +0530,
Trimmed_videos/natural_13.mp4,31,0,44,44,0,,,,,,,,,,0,44,44,14,,,,,1541.4381765999133,,19,Female,Left Handed,Corrected to normal,,,,,,,,,,,,,,,,,,,1541.3794566999422,1541.4381765999133,1541.4381765999133,1573.4710522999521,1573.316330499947,None,0,1,1573.4523071999429,1573.4710522999521,1535.854840099928,1575.9566237999825,2.2344068000093102,None,1575.9566892998992,1575.9725432998966,1575.9725432998966,1644.3388779999223,space,68.36478379997425,None,,,,,,,,,,,,,,,,,,,,,,,,,,,,,sub49_NB,001,2026-01-26_11h34.19.625,recognitionstage,,2025.1.1,59.89921359676144,2026-01-26 11h35.15.104201 +0530,
,,,0,0,0,24,frames\Vid24_BB_T.png,frames\Vid24_L.png,['r'],1,[7.678332099923864],[None],4,5.382471900084056,,,,,0,0,0,23,1644.3869212999707,,19,Female,Left Handed,Corrected to normal,,,,,,,,,,,,,,,,,,,,,,,,,,,,,,,,,,,,,,,,1644.3743998999707,1644.3869212999707,1644.3869212999707,1644.3869212999707,1644.3869212999707,1644.3869212999707,1644.3869212999707,1652.0728404999245,['r'],1,[7.678332099923864],[None],1652.0733992999885,1652.0882176999003,1652.0882176999003,1652.0882176999003,1657.4728481000056,4,5.382471900084056,4,5.382471900084056,,,,,,,,sub49_NB,001,2026-01-26_11h34.19.625,recognitionstage,,2025.1.1,59.89921359676144,2026-01-26 11h35.15.104201 +0530,
,,,1,1,0,37,frames\Vid37_BB_T.png,frames\Vid37_L.png,['l'],1,[5.200842300080694],[None],5,3.3152421000413597,,,,,0,1,1,36,1657.5203328999924,,19,Female,Left Handed,Corrected to normal,,,,,,,,,,,,,,,,,,,,,,,,,,,,,,,,,,,,,,,,1657.5057751999702,1657.5203328999924,1657.5203328999924,1657.5203328999924,1657.5203328999924,1657.5203328999924,1657.5203328999924,1662.7235488999868,['l'],1,[5.200842300080694],[None],1662.7244490999728,1662.738566499902,1662.738566499902,1662.738566499902,1666.0555224999553,5,3.3152421000413597,5,3.3152421000413597,,,,,,,,sub49_NB,001,2026-01-26_11h34.19.625,recognitionstage,,2025.1.1,59.89921359676144,2026-01-26 11h35.15.104201 +0530,
,,,2,2,0,28,frames\Vid28_EM_T.png,frames\Vid28_L.png,['r'],1,[4.369001999963075],[None],5,1.4473597999894992,,,,,0,2,2,27,1666.0882255999604,,19,Female,Left Handed,Corrected to normal,,,,,,,,,,,,,,,,,,,,,,,,,,,,,,,,,,,,,,,,1666.0800929999677,1666.0882255999604,1666.0882255999604,1666.0882255999604,1666.0882255999604,1666.0882255999604,1666.0882255999604,1670.4736994999694,['r'],1,[4.369001999963075],[None],1670.475183499977,1670.4884257999947,1670.4884257999947,1670.4884257999947,1671.939685999998,5,1.4473597999894992,5,1.4473597999894992,,,,,,,,sub49_NB,001,2026-01-26_11h34.19.625,recognitionstage,,2025.1.1,59.89921359676144,2026-01-26 11h35.15.104201 +0530,
,,,3,3,0,20,frames\Vid20_EM_T.png,frames\Vid20_L.png,['r'],1,[4.373493599938229],[None],5,1.3648940999992192,,,,,0,3,3,19,1671.9717370999279,,19,Female,Left Handed,Corrected to normal,,,,,,,,,,,,,,,,,,,,,,,,,,,,,,,,,,,,,,,,1671.9605140999192,1671.9717370999279,1671.9717370999279,1671.9717370999279,1671.9717370999279,1671.9717370999279,1671.9717370999279,1676.3570853999117,['r'],1,[4.373493599938229],[None],1676.357980699977,1676.3714393998962,1676.3714393998962,1676.3714393998962,1677.7390280999243,5,1.3648940999992192,5,1.3648940999992192,,,,,,,,sub49_NB,001,2026-01-26_11h34.19.625,recognitionstage,,2025.1.1,59.89921359676144,2026-01-26 11h35.15.104201 +0530,
,,,4,4,0,13,frames\Vid13_BB_T.png,frames\Vid13_L.png,['l'],0,[10.747775300056674],[None],1,4.279972500051372,,,,,0,4,4,12,1677.8054962999886,,19,Female,Left Handed,Corrected to normal,,,,,,,,,,,,,,,,,,,,,,,,,,,,,,,,,,,,,,,,1677.787064199918,1677.8054962999886,1677.8054962999886,1677.8054962999886,1677.8054962999886,1677.8054962999886,1677.8054962999886,1688.5579328999156,['l'],0,[10.747775300056674],[None],1688.5589649999747,1688.5715244999155,1688.5715244999155,1688.5715244999155,1692.855945599964,1,4.279972500051372,1,4.279972500051372,,,,,,,,sub49_NB,001,2026-01-26_11h34.19.625,recognitionstage,,2025.1.1,59.89921359676144,2026-01-26 11h35.15.104201 +0530,
,,,5,5,0,15,frames\Vid15_BB_T.png,frames\Vid15_L.png,['l'],1,[5.4799525999696925],[None],3,2.2643725000089034,,,,,0,5,5,14,1692.9374120999128,,19,Female,Left Handed,Corrected to normal,,,,,,,,,,,,,,,,,,,,,,,,,,,,,,,,,,,,,,,,1692.9299855999416,1692.9374120999128,1692.9374120999128,1692.9374120999128,1692.9374120999128,1692.9374120999128,1692.9374120999128,1698.4244888999965,['l'],1,[5.4799525999696925],[None],1698.4257649999345,1698.438168899971,1698.438168899971,1698.438168899971,1700.7056226999266,3,2.2643725000089034,3,2.2643725000089034,,,,,,,,sub49_NB,001,2026-01-26_11h34.19.625,recognitionstage,,2025.1.1,59.89921359676144,2026-01-26 11h35.15.104201 +0530,
,,,6,6,0,6,frames\Vid6_BB_T.png,frames\Vid6_L.png,['l'],1,[5.634160800022073],[None],5,1.665980999940075,,,,,0,6,6,5,1700.774992199964,,19,Female,Left Handed,Corrected to normal,,,,,,,,,,,,,,,,,,,,,,,,,,,,,,,,,,,,,,,,1700.7633119999664,1700.774992199964,1700.774992199964,1700.774992199964,1700.774992199964,1700.774992199964,1700.774992199964,1706.4242315999,['l'],1,[5.634160800022073],[None],1706.4251171998912,1706.438151499955,1706.438151499955,1706.438151499955,1708.1061162999831,5,1.665980999940075,5,1.665980999940075,,,,,,,,sub49_NB,001,2026-01-26_11h34.19.625,recognitionstage,,2025.1.1,59.89921359676144,2026-01-26 11h35.15.104201 +0530,
,,,7,7,0,18,frames\Vid18_EM_T.png,frames\Vid18_L.png,['l'],0,[7.603656799998134],[None],3,1.9812785000540316,,,,,0,7,7,17,1708.1415082999738,,19,Female,Left Handed,Corrected to normal,,,,,,,,,,,,,,,,,,,,,,,,,,,,,,,,,,,,,,,,1708.1325109999161,1708.1415082999738,1708.1415082999738,1708.1415082999738,1708.1415082999738,1708.1415082999738,1708.1415082999738,1715.7569686999777,['l'],0,[7.603656799998134],[None],1715.757709599915,1715.7715577000054,1715.7715577000054,1715.7715577000054,1717.7562648999738,3,1.9812785000540316,3,1.9812785000540316,,,,,,,,sub49_NB,001,2026-01-26_11h34.19.625,recognitionstage,,2025.1.1,59.89921359676144,2026-01-26 11h35.15.104201 +0530,
,,,8,8,0,1,frames\Vid1_EM_T.png,frames\Vid1_L.png,['r'],1,[3.9783021999755874],[None],5,2.0470613000215963,,,,,0,8,8,0,1717.8391014999943,,19,Female,Left Handed,Corrected to normal,,,,,,,,,,,,,,,,,,,,,,,,,,,,,,,,,,,,,,,,1717.820200099959,1717.8391014999943,1717.8391014999943,1717.8391014999943,1717.8391014999943,1717.8391014999943,1717.8391014999943,1721.824183199904,['r'],1,[3.9783021999755874],[None],1721.8253306999104,1721.838112999918,1721.838112999918,1721.838112999918,1723.889609499951,5,2.0470613000215963,5,2.0470613000215963,,,,,,,,sub49_NB,001,2026-01-26_11h34.19.625,recognitionstage,,2025.1.1,59.89921359676144,2026-01-26 11h35.15.104201 +0530,
,,,9,9,0,7,frames\Vid7_EM_T.png,frames\Vid7_L.png,['l'],0,[4.698864699923433],[None],5,1.6804635000880808,,,,,0,9,9,6,1723.9583604999352,,19,Female,Left Handed,Corrected to normal,,,,,,,,,,,,,,,,,,,,,,,,,,,,,,,,,,,,,,,,1723.9484949999023,1723.9583604999352,1723.9583604999352,1723.9583604999352,1723.9583604999352,1723.9583604999352,1723.9583604999352,1728.6742103999713,['l'],0,[4.698864699923433],[None],1728.6753396999557,1728.6882875999436,1728.6882875999436,1728.6882875999436,1730.3728613998974,5,1.6804635000880808,5,1.6804635000880808,,,,,,,,sub49_NB,001,2026-01-26_11h34.19.625,recognitionstage,,2025.1.1,59.89921359676144,2026-01-26 11h35.15.104201 +0530,
,,,10,10,0,39,frames\Vid39_BB_T.png,frames\Vid39_L.png,['r'],1,[4.977940100012347],[None],5,1.4301207000389695,,,,,0,10,10,38,1730.407549800002,,19,Female,Left Handed,Corrected to normal,,,,,,,,,,,,,,,,,,,,,,,,,,,,,,,,,,,,,,,,1730.3963864999823,1730.407549800002,1730.407549800002,1730.407549800002,1730.407549800002,1730.407549800002,1730.407549800002,1735.3916462999769,['r'],1,[4.977940100012347],[None],1735.3929002999794,1735.4199510999024,1735.4199510999024,1735.4199510999024,1736.8393813999137,5,1.4301207000389695,5,1.4301207000389695,,,,,,,,sub49_NB,001,2026-01-26_11h34.19.625,recognitionstage,,2025.1.1,59.89921359676144,2026-01-26 11h35.15.104201 +0530,
,,,11,11,0,11,frames\Vid11_EM_T.png,frames\Vid11_L.png,['r'],1,[6.303697200026363],[None],3,2.498163599986583,,,,,0,11,11,10,1736.905507599935,,19,Female,Left Handed,Corrected to normal,,,,,,,,,,,,,,,,,,,,,,,,,,,,,,,,,,,,,,,,1736.8956742999144,1736.905507599935,1736.905507599935,1736.905507599935,1736.905507599935,1736.905507599935,1736.905507599935,1743.224012099905,['r'],1,[6.303697200026363],[None],1743.2249379999703,1743.2383050000062,1743.2383050000062,1743.2383050000062,1745.7387896999717,3,2.498163599986583,3,2.498163599986583,,,,,,,,sub49_NB,001,2026-01-26_11h34.19.625,recognitionstage,,2025.1.1,59.89921359676144,2026-01-26 11h35.15.104201 +0530,
,,,12,12,0,38,frames\Vid38_EM_T.png,frames\Vid38_L.png,['l'],1,[9.675268299994059],[None],1,1.2647274000337347,,,,,0,12,12,37,1745.774012699956,,19,Female,Left Handed,Corrected to normal,,,,,,,,,,,,,,,,,,,,,,,,,,,,,,,,,,,,,,,,1745.763251699973,1745.774012699956,1745.774012699956,1745.774012699956,1745.774012699956,1745.774012699956,1745.774012699956,1755.456969999941,['l'],1,[9.675268299994059],[None],1755.4577190999407,1755.47161769995,1755.47161769995,1755.47161769995,1756.7390598999336,1,1.2647274000337347,1,1.2647274000337347,,,,,,,,sub49_NB,001,2026-01-26_11h34.19.625,recognitionstage,,2025.1.1,59.89921359676144,2026-01-26 11h35.15.104201 +0530,
,,,13,13,0,30,frames\Vid30_EM_T.png,frames\Vid30_L.png,['l'],1,[9.997495600022376],[None],5,2.014211399946362,,,,,0,13,13,29,1756.7717473999364,,19,Female,Left Handed,Corrected to normal,,,,,,,,,,,,,,,,,,,,,,,,,,,,,,,,,,,,,,,,1756.7621371999849,1756.7717473999364,1756.7717473999364,1756.7717473999364,1756.7717473999364,1756.7717473999364,1756.7717473999364,1766.7741447999142,['l'],1,[9.997495600022376],[None],1766.7754162999336,1766.7885898998939,1766.7885898998939,1766.7885898998939,1768.8053839999484,5,2.014211399946362,5,2.014211399946362,,,,,,,,sub49_NB,001,2026-01-26_11h34.19.625,recognitionstage,,2025.1.1,59.89921359676144,2026-01-26 11h35.15.104201 +0530,
,,,14,14,0,12,frames\Vid12_EM_T.png,frames\Vid12_L.png,['r'],1,[8.256705699954182],[None],5,1.513954499969259,,,,,0,14,14,11,1768.872573499917,,19,Female,Left Handed,Corrected to normal,,,,,,,,,,,,,,,,,,,,,,,,,,,,,,,,,,,,,,,,1768.862710599904,1768.872573499917,1768.872573499917,1768.872573499917,1768.872573499917,1768.872573499917,1768.872573499917,1777.1410868999083,['r'],1,[8.256705699954182],[None],1777.1422952999128,1777.1554313999368,1777.1554313999368,1777.1554313999368,1778.6719898999436,5,1.513954499969259,5,1.513954499969259,,,,,,,,sub49_NB,001,2026-01-26_11h34.19.625,recognitionstage,,2025.1.1,59.89921359676144,2026-01-26 11h35.15.104201 +0530,
,,,15,15,0,2,frames\Vid2_BB_T.png,frames\Vid2_L.png,['r'],1,[4.946963399997912],[None],5,1.6130959000438452,,,,,0,15,15,1,1778.7422618999844,,19,Female,Left Handed,Corrected to normal,,,,,,,,,,,,,,,,,,,,,,,,,,,,,,,,,,,,,,,,1778.7255052999826,1778.7422618999844,1778.7422618999844,1778.7422618999844,1778.7422618999844,1778.7422618999844,1778.7422618999844,1783.6915879999287,['r'],1,[4.946963399997912],[None],1783.6927033999236,1783.704940799973,1783.704940799973,1783.704940799973,1785.3233821999747,5,1.6130959000438452,5,1.6130959000438452,,,,,,,,sub49_NB,001,2026-01-26_11h34.19.625,recognitionstage,,2025.1.1,59.89921359676144,2026-01-26 11h35.15.104201 +0530,
,,,16,16,0,14,frames\Vid14_BB_T.png,frames\Vid14_L.png,['l'],1,[3.6883083999855444],[None],5,1.2817200999706984,,,,,0,16,16,13,1785.408930699923,,19,Female,Left Handed,Corrected to normal,,,,,,,,,,,,,,,,,,,,,,,,,,,,,,,,,,,,,,,,1785.384410199942,1785.408930699923,1785.408930699923,1785.408930699923,1785.408930699923,1785.408930699923,1785.408930699923,1789.1073278998956,['l'],1,[3.6883083999855444],[None],1789.1084657999454,1789.1218961999984,1789.1218961999984,1789.1218961999984,1790.4059449000051,5,1.2817200999706984,5,1.2817200999706984,,,,,,,,sub49_NB,001,2026-01-26_11h34.19.625,recognitionstage,,2025.1.1,59.89921359676144,2026-01-26 11h35.15.104201 +0530,
,,,17,17,0,25,frames\Vid25_BB_T.png,frames\Vid25_L.png,['l'],1,[2.711413399898447],[None],5,0.7796363999368623,,,,,0,17,17,24,1790.4578883999493,,19,Female,Left Handed,Corrected to normal,,,,,,,,,,,,,,,,,,,,,,,,,,,,,,,,,,,,,,,,1790.4335190999554,1790.4578883999493,1790.4578883999493,1790.4578883999493,1790.4578883999493,1790.4578883999493,1790.4578883999493,1793.1753545999527,['l'],1,[2.711413399898447],[None],1793.1767617999576,1793.2033527999884,1793.2033527999884,1793.2033527999884,1793.9722185999854,5,0.7796363999368623,5,0.7796363999368623,,,,,,,,sub49_NB,001,2026-01-26_11h34.19.625,recognitionstage,,2025.1.1,59.89921359676144,2026-01-26 11h35.15.104201 +0530,
,,,18,18,0,29,frames\Vid29_BB_T.png,frames\Vid29_L.png,['r'],1,[10.084229100029916],[None],3,1.5150823999429122,,,,,0,18,18,28,1794.0049838999985,,19,Female,Left Handed,Corrected to normal,,,,,,,,,,,,,,,,,,,,,,,,,,,,,,,,,,,,,,,,1793.9983700999292,1794.0049838999985,1794.0049838999985,1794.0049838999985,1794.0049838999985,1794.0049838999985,1794.0049838999985,1804.0913030999945,['r'],1,[10.084229100029916],[None],1804.0921559999697,1804.1202632999048,1804.1202632999048,1804.1202632999048,1805.622145399917,3,1.5150823999429122,3,1.5150823999429122,,,,,,,,sub49_NB,001,2026-01-26_11h34.19.625,recognitionstage,,2025.1.1,59.89921359676144,2026-01-26 11h35.15.104201 +0530,
,,,19,19,0,4,frames\Vid4_EM_T.png,frames\Vid4_L.png,['r'],1,[4.584394499892369],[None],5,1.8296618000604212,,,,,0,19,19,3,1805.688859099988,,19,Female,Left Handed,Corrected to normal,,,,,,,,,,,,,,,,,,,,,,,,,,,,,,,,,,,,,,,,1805.6818570999894,1805.688859099988,1805.688859099988,1805.688859099988,1805.688859099988,1805.688859099988,1805.688859099988,1810.2755112999585,['r'],1,[4.584394499892369],[None],1810.2767220999813,1810.2883986999514,1810.2883986999514,1810.2883986999514,1812.1220515999012,5,1.8296618000604212,5,1.8296618000604212,,,,,,,,sub49_NB,001,2026-01-26_11h34.19.625,recognitionstage,,2025.1.1,59.89921359676144,2026-01-26 11h35.15.104201 +0530,
,,,20,20,0,40,frames\Vid40_EM_T.png,frames\Vid40_L.png,['r'],1,[3.3473033999325708],[None],5,0.7969806999899447,,,,,0,20,20,39,1812.1579453999875,,19,Female,Left Handed,Corrected to normal,,,,,,,,,,,,,,,,,,,,,,,,,,,,,,,,,,,,,,,,1812.1429375999141,1812.1579453999875,1812.1579453999875,1812.1579453999875,1812.1579453999875,1812.1579453999875,1812.1579453999875,1815.5083669999149,['r'],1,[3.3473033999325708],[None],1815.5093868999975,1815.5215032999404,1815.5215032999404,1815.5215032999404,1816.3219790000003,5,0.7969806999899447,5,0.7969806999899447,,,,,,,,sub49_NB,001,2026-01-26_11h34.19.625,recognitionstage,,2025.1.1,59.89921359676144,2026-01-26 11h35.15.104201 +0530,
,,,21,21,0,35,frames\Vid35_EM_T.png,frames\Vid35_L.png,['r'],1,[3.8067060000030324],[None],5,0.6480538999894634,,,,,0,21,21,34,1816.354565699934,,19,Female,Left Handed,Corrected to normal,,,,,,,,,,,,,,,,,,,,,,,,,,,,,,,,,,,,,,,,1816.3429352999665,1816.354565699934,1816.354565699934,1816.354565699934,1816.354565699934,1816.354565699934,1816.354565699934,1820.1738140999805,['r'],1,[3.8067060000030324],[None],1820.1745502999984,1820.188109699986,1820.188109699986,1820.188109699986,1820.839195599896,5,0.6480538999894634,5,0.6480538999894634,,,,,,,,sub49_NB,001,2026-01-26_11h34.19.625,recognitionstage,,2025.1.1,59.89921359676144,2026-01-26 11h35.15.104201 +0530,
,,,22,22,0,31,frames\Vid31_EM_T.png,frames\Vid31_L.png,['r'],1,[2.7057521999813616],[None],5,0.6984482000116259,,,,,0,22,22,30,1820.8714869999094,,19,Female,Left Handed,Corrected to normal,,,,,,,,,,,,,,,,,,,,,,,,,,,,,,,,,,,,,,,,1820.860249799909,1820.8714869999094,1820.8714869999094,1820.8714869999094,1820.8714869999094,1820.8714869999094,1820.8714869999094,1823.59037599992,['r'],1,[2.7057521999813616],[None],1823.5911307999631,1823.6048243999248,1823.6048243999248,1823.6048243999248,1824.3057819999522,5,0.6984482000116259,5,0.6984482000116259,,,,,,,,sub49_NB,001,2026-01-26_11h34.19.625,recognitionstage,,2025.1.1,59.89921359676144,2026-01-26 11h35.15.104201 +0530,
,,,23,23,0,26,frames\Vid26_EM_T.png,frames\Vid26_L.png,['r'],1,[2.830328800017014],[None],5,0.6313254999695346,,,,,0,23,23,25,1824.3549165999284,,19,Female,Left Handed,Corrected to normal,,,,,,,,,,,,,,,,,,,,,,,,,,,,,,,,,,,,,,,,1824.336328299949,1824.3549165999284,1824.3549165999284,1824.3549165999284,1824.3549165999284,1824.3549165999284,1824.3549165999284,1827.1901543999556,['r'],1,[2.830328800017014],[None],1827.1911390000023,1827.2053202999523,1827.2053202999523,1827.2053202999523,1827.8393393999431,5,0.6313254999695346,5,0.6313254999695346,,,,,,,,sub49_NB,001,2026-01-26_11h34.19.625,recognitionstage,,2025.1.1,59.89921359676144,2026-01-26 11h35.15.104201 +0530,
,,,24,24,0,34,frames\Vid34_BB_T.png,frames\Vid34_L.png,['l'],0,[3.769368899986148],[None],5,0.648495199973695,,,,,0,24,24,33,1827.871834199992,,19,Female,Left Handed,Corrected to normal,,,,,,,,,,,,,,,,,,,,,,,,,,,,,,,,,,,,,,,,1827.8632446998963,1827.871834199992,1827.871834199992,1827.871834199992,1827.871834199992,1827.871834199992,1827.871834199992,1831.6569982999936,['l'],0,[3.769368899986148],[None],1831.6578359999694,1831.6715748999268,1831.6715748999268,1831.6715748999268,1832.3224876999157,5,0.648495199973695,5,0.648495199973695,,,,,,,,sub49_NB,001,2026-01-26_11h34.19.625,recognitionstage,,2025.1.1,59.89921359676144,2026-01-26 11h35.15.104201 +0530,
,,,25,25,0,16,frames\Vid16_EM_T.png,frames\Vid16_L.png,['l'],1,[2.7561039000283927],[None],5,0.5308423000387847,,,,,0,25,25,15,1832.3891686999705,,19,Female,Left Handed,Corrected to normal,,,,,,,,,,,,,,,,,,,,,,,,,,,,,,,,,,,,,,,,1832.373759899987,1832.3891686999705,1832.3891686999705,1832.3891686999705,1832.3891686999705,1832.3891686999705,1832.3891686999705,1835.157171699917,['l'],1,[2.7561039000283927],[None],1835.158295399975,1835.171982999891,1835.171982999891,1835.171982999891,1835.7063064998947,5,0.5308423000387847,5,0.5308423000387847,,,,,,,,sub49_NB,001,2026-01-26_11h34.19.625,recognitionstage,,2025.1.1,59.89921359676144,2026-01-26 11h35.15.104201 +0530,
,,,26,26,0,5,frames\Vid5_EM_T.png,frames\Vid5_L.png,['r'],1,[2.962011600029655],[None],5,0.832709199981764,,,,,0,26,26,4,1835.7750896998914,,19,Female,Left Handed,Corrected to normal,,,,,,,,,,,,,,,,,,,,,,,,,,,,,,,,,,,,,,,,1835.7504068999551,1835.7750896998914,1835.7750896998914,1835.7750896998914,1835.7750896998914,1835.7750896998914,1835.7750896998914,1838.739177399897,['r'],1,[2.962011600029655],[None],1838.7398148999782,1838.7553169999737,1838.7553169999737,1838.7553169999737,1839.5891714999452,5,0.832709199981764,5,0.832709199981764,,,,,,,,sub49_NB,001,2026-01-26_11h34.19.625,recognitionstage,,2025.1.1,59.89921359676144,2026-01-26 11h35.15.104201 +0530,
,,,27,27,0,10,frames\Vid10_BB_T.png,frames\Vid10_L.png,['r'],1,[3.4232927999692038],[None],5,0.5311889000004157,,,,,0,27,27,9,1839.657911999966,,19,Female,Left Handed,Corrected to normal,,,,,,,,,,,,,,,,,,,,,,,,,,,,,,,,,,,,,,,,1839.6479510999052,1839.657911999966,1839.657911999966,1839.657911999966,1839.657911999966,1839.657911999966,1839.657911999966,1843.0902738999575,['r'],1,[3.4232927999692038],[None],1843.0913878999418,1843.1052552999463,1843.1052552999463,1843.1052552999463,1843.6393277999014,5,0.5311889000004157,5,0.5311889000004157,,,,,,,,sub49_NB,001,2026-01-26_11h34.19.625,recognitionstage,,2025.1.1,59.89921359676144,2026-01-26 11h35.15.104201 +0530,
,,,28,28,0,9,frames\Vid9_EM_T.png,frames\Vid9_L.png,['r'],1,[4.668412600061856],[None],3,1.5316907000960782,,,,,0,28,28,8,1843.708809099975,,19,Female,Left Handed,Corrected to normal,,,,,,,,,,,,,,,,,,,,,,,,,,,,,,,,,,,,,,,,1843.6893460999709,1843.708809099975,1843.708809099975,1843.708809099975,1843.708809099975,1843.708809099975,1843.708809099975,1848.390846199938,['r'],1,[4.668412600061856],[None],1848.391650699894,1848.40515399992,1848.40515399992,1848.40515399992,1849.9395153999794,3,1.5316907000960782,3,1.5316907000960782,,,,,,,,sub49_NB,001,2026-01-26_11h34.19.625,recognitionstage,,2025.1.1,59.89921359676144,2026-01-26 11h35.15.104201 +0530,
,,,29,29,0,22,frames\Vid22_EM_T.png,frames\Vid22_L.png,['r'],1,[1.842484200024046],[None],5,1.2470137999625877,,,,,0,29,29,21,1849.9908167999238,,19,Female,Left Handed,Corrected to normal,,,,,,,,,,,,,,,,,,,,,,,,,,,,,,,,,,,,,,,,1849.9679608999286,1849.9908167999238,1849.9908167999238,1849.9908167999238,1849.9908167999238,1849.9908167999238,1849.9908167999238,1851.841639899998,['r'],1,[1.842484200024046],[None],1851.8428592999699,1851.870185699896,1851.870185699896,1851.870185699896,1853.1059428999433,5,1.2470137999625877,5,1.2470137999625877,,,,,,,,sub49_NB,001,2026-01-26_11h34.19.625,recognitionstage,,2025.1.1,59.89921359676144,2026-01-26 11h35.15.104201 +0530,
,,,30,30,0,23,frames\Vid23_EM_T.png,frames\Vid23_L.png,['l'],1,[4.14165210002102],[None],4,2.6804476999677718,,,,,0,30,30,22,1853.1556744999252,,19,Female,Left Handed,Corrected to normal,,,,,,,,,,,,,,,,,,,,,,,,,,,,,,,,,,,,,,,,1853.1348069999367,1853.1556744999252,1853.1556744999252,1853.1556744999252,1853.1556744999252,1853.1556744999252,1853.1556744999252,1857.307967199944,['l'],1,[4.14165210002102],[None],1857.3090371999424,1857.3217273999471,1857.3217273999471,1857.3217273999471,1860.006072799908,4,2.6804476999677718,4,2.6804476999677718,,,,,,,,sub49_NB,001,2026-01-26_11h34.19.625,recognitionstage,,2025.1.1,59.89921359676144,2026-01-26 11h35.15.104201 +0530,
,,,31,31,0,8,frames\Vid8_BB_T.png,frames\Vid8_L.png,['l'],1,[3.680644499952905],[None],5,1.6976693000178784,,,,,0,31,31,7,1860.072688999935,,19,Female,Left Handed,Corrected to normal,,,,,,,,,,,,,,,,,,,,,,,,,,,,,,,,,,,,,,,,1860.0559190999484,1860.072688999935,1860.072688999935,1860.072688999935,1860.072688999935,1860.072688999935,1860.072688999935,1863.7579514998943,['l'],1,[3.680644499952905],[None],1863.7590697999112,1863.7716993999202,1863.7716993999202,1863.7716993999202,1865.4724164999789,5,1.6976693000178784,5,1.6976693000178784,,,,,,,,sub49_NB,001,2026-01-26_11h34.19.625,recognitionstage,,2025.1.1,59.89921359676144,2026-01-26 11h35.15.104201 +0530,
,,,32,32,0,3,frames\Vid3_BB_T.png,frames\Vid3_L.png,['l'],1,[8.163209500024095],[None],3,1.782489400007762,,,,,0,32,32,2,1865.5419452999486,,19,Female,Left Handed,Corrected to normal,,,,,,,,,,,,,,,,,,,,,,,,,,,,,,,,,,,,,,,,1865.5243130999152,1865.5419452999486,1865.5419452999486,1865.5419452999486,1865.5419452999486,1865.5419452999486,1865.5419452999486,1873.7067316999892,['l'],1,[8.163209500024095],[None],1873.7075720999856,1873.7221770999022,1873.7221770999022,1873.7221770999022,1875.505834499956,3,1.782489400007762,3,1.782489400007762,,,,,,,,sub49_NB,001,2026-01-26_11h34.19.625,recognitionstage,,2025.1.1,59.89921359676144,2026-01-26 11h35.15.104201 +0530,
,,,33,33,0,21,frames\Vid21_BB_T.png,frames\Vid21_L.png,['l'],1,[3.868350899894722],[None],5,1.8321304999990389,,,,,0,33,33,20,1875.5409846999682,,19,Female,Left Handed,Corrected to normal,,,,,,,,,,,,,,,,,,,,,,,,,,,,,,,,,,,,,,,,1875.5324593998957,1875.5409846999682,1875.5409846999682,1875.5409846999682,1875.5409846999682,1875.5409846999682,1875.5409846999682,1879.4238980999216,['l'],1,[3.868350899894722],[None],1879.4248383999802,1879.438468499924,1879.438468499924,1879.438468499924,1881.2725534999045,5,1.8321304999990389,5,1.8321304999990389,,,,,,,,sub49_NB,001,2026-01-26_11h34.19.625,recognitionstage,,2025.1.1,59.89921359676144,2026-01-26 11h35.15.104201 +0530,
,,,34,34,0,33,frames\Vid33_BB_T.png,frames\Vid33_L.png,['r'],1,[3.58439560001716],[None],3,1.447063700063154,,,,,0,34,34,32,1881.3048421998974,,19,Female,Left Handed,Corrected to normal,,,,,,,,,,,,,,,,,,,,,,,,,,,,,,,,,,,,,,,,1881.2982036999892,1881.3048421998974,1881.3048421998974,1881.3048421998974,1881.3048421998974,1881.3048421998974,1881.3048421998974,1884.891299999901,['r'],1,[3.58439560001716],[None],1884.8923928999575,1884.9048844999634,1884.9048844999634,1884.9048844999634,1886.3565227999352,3,1.447063700063154,3,1.447063700063154,,,,,,,,sub49_NB,001,2026-01-26_11h34.19.625,recognitionstage,,2025.1.1,59.89921359676144,2026-01-26 11h35.15.104201 +0530,
,,,35,35,0,36,frames\Vid36_BB_T.png,frames\Vid36_L.png,['l'],1,[2.844035000074655],[None],4,0.8151655000401661,,,,,0,35,35,35,1886.405199599918,,19,Female,Left Handed,Corrected to normal,,,,,,,,,,,,,,,,,,,,,,,,,,,,,,,,,,,,,,,,1886.3831787999952,1886.405199599918,1886.405199599918,1886.405199599918,1886.405199599918,1886.405199599918,1886.405199599918,1889.2573376999935,['l'],1,[2.844035000074655],[None],1889.258158499957,1889.2716384999221,1889.2716384999221,1889.2716384999221,1890.0895550999558,4,0.8151655000401661,4,0.8151655000401661,,,,,,,,sub49_NB,001,2026-01-26_11h34.19.625,recognitionstage,,2025.1.1,59.89921359676144,2026-01-26 11h35.15.104201 +0530,
,,,36,36,0,17,frames\Vid17_BB_T.png,frames\Vid17_L.png,['l'],1,[5.1902691998984665],[None],5,2.5152904000133276,,,,,0,36,36,16,1890.1389233999653,,19,Female,Left Handed,Corrected to normal,,,,,,,,,,,,,,,,,,,,,,,,,,,,,,,,,,,,,,,,1890.128559499979,1890.1389233999653,1890.1389233999653,1890.1389233999653,1890.1389233999653,1890.1389233999653,1890.1389233999653,1895.3404437999707,['l'],1,[5.1902691998984665],[None],1895.3413658000063,1895.3552784998901,1895.3552784998901,1895.3552784998901,1897.8726843999466,5,2.5152904000133276,5,2.5152904000133276,,,,,,,,sub49_NB,001,2026-01-26_11h34.19.625,recognitionstage,,2025.1.1,59.89921359676144,2026-01-26 11h35.15.104201 +0530,
,,,37,37,0,27,frames\Vid27_BB_T.png,frames\Vid27_L.png,['r'],1,[2.6793193999910727],[None],5,0.6137578000780195,,,,,0,37,37,26,1897.9061705999775,,19,Female,Left Handed,Corrected to normal,,,,,,,,,,,,,,,,,,,,,,,,,,,,,,,,,,,,,,,,1897.8971537000034,1897.9061705999775,1897.9061705999775,1897.9061705999775,1897.9061705999775,1897.9061705999775,1897.9061705999775,1900.5916979999747,['r'],1,[2.6793193999910727],[None],1900.5928834999213,1900.6198504999047,1900.6198504999047,1900.6198504999047,1901.222525499994,5,0.6137578000780195,5,0.6137578000780195,,,,,,,,sub49_NB,001,2026-01-26_11h34.19.625,recognitionstage,,2025.1.1,59.89921359676144,2026-01-26 11h35.15.104201 +0530,
,,,38,38,0,32,frames\Vid32_EM_T.png,frames\Vid32_L.png,['r'],1,[3.881744400016032],[None],3,1.58043319999706,,,,,0,38,38,31,1901.2716183000011,,19,Female,Left Handed,Corrected to normal,,,,,,,,,,,,,,,,,,,,,,,,,,,,,,,,,,,,,,,,1901.2504263999872,1901.2716183000011,1901.2716183000011,1901.2716183000011,1901.2716183000011,1901.2716183000011,1901.2716183000011,1905.1575428999495,['r'],1,[3.881744400016032],[None],1905.1586790999863,1905.1715439999243,1905.1715439999243,1905.1715439999243,1906.7558984999778,3,1.58043319999706,3,1.58043319999706,,,,,,,,sub49_NB,001,2026-01-26_11h34.19.625,recognitionstage,,2025.1.1,59.89921359676144,2026-01-26 11h35.15.104201 +0530,
,,,39,39,0,19,frames\Vid19_BB_T.png,frames\Vid19_L.png,['r'],1,[2.4609897000482306],[None],3,0.6153218999970704,,,,,0,39,39,18,1906.7884184999857,,19,Female,Left Handed,Corrected to normal,,,,,,,,,,,,,,,,,,,,,,,,,,,,,,,,,,,,,,,,1906.7804924999364,1906.7884184999857,1906.7884184999857,1906.7884184999857,1906.7884184999857,1906.7884184999857,1906.7884184999857,1909.2567141999025,['r'],1,[2.4609897000482306],[None],1909.257597799995,1909.2718728999607,1909.2718728999607,1909.2718728999607,1909.8895437999163,3,0.6153218999970704,3,0.6153218999970704,,,,,,,,sub49_NB,001,2026-01-26_11h34.19.625,recognitionstage,,2025.1.1,59.89921359676144,2026-01-26 11h35.15.104201 +0530,
,,,,,,,,,,,,,,,,,,,,,,,,,19,Female,Left Handed,Corrected to normal,,,,,,,,,,,,,,,,,,,,,,,,,,,,,,,,,,,,,,,,,,,,,,,,,,,,,,,,,,,,,1909.88966659992,1909.906113899895,1909.906113899895,1929.906733599957,1929.906733599957,1929.8890016999794,None,sub49_NB,001,2026-01-26_11h34.19.625,recognitionstage,,2025.1.1,59.89921359676144,2026-01-26 11h35.15.104201 +0530,
