path,duration,is_repeat,thisN,thisTrialN,thisRepN,movie_id,target_img,lure_img,resp.keys,resp.corr,resp.rt,resp.duration,conf_radio.response,conf_radio.rt,movie.thisRepN,movie.thisTrialN,movie.thisN,movie.thisIndex,recogloop.thisRepN,recogloop.thisTrialN,recogloop.thisN,recogloop.thisIndex,thisRow.t,notes,age,gender,handedness,vision,caffeine_2h,alcohol_smoke_12h,demographics.started,demographics.stopped,Instructions.started,text1.started,key_resp.started,Instructions.stopped,key_resp.keys,key_resp.rt,key_resp.duration,instruction_2.started,text2.started,key_resp_2.started,instruction_2.stopped,key_resp_2.keys,key_resp_2.rt,key_resp_2.duration,Videos.started,movie_2.started,vigilance_resp.started,movie_2.stopped,Videos.stopped,movie.vigilance_resp.keys,vigilance_pressed,vigilance_correct,ISI.started,text.started,ISI.stopped,text.stopped,movie.vigilance_resp.rt,movie.vigilance_resp.duration,recognition.started,text_4.started,key_resp_3.started,recognition.stopped,key_resp_3.keys,key_resp_3.rt,key_resp_3.duration,recognition_task.started,leftimage.started,rightimage.started,resp.started,frames_question.started,right_label.started,left_label.started,recognition_task.stopped,recogloop.resp.keys,recogloop.resp.corr,recogloop.resp.rt,recogloop.resp.duration,confidence.started,conf_text.started,conf_radio.started,conf_label.started,confidence.stopped,recogloop.conf_radio.response,recogloop.conf_radio.rt,confidence,confidence_rt,thank_you.started,text_6.started,key_resp_4.started,thank_you.stopped,key_resp_4.keys,key_resp_4.rt,key_resp_4.duration,participant,session,date,expName,expVersion,psychopyVersion,frameRate,expStart,...105
,,,,,,,,,,,,,,,,,,,,,,,,,21,Male,Right handed,Normal,Caffeine consumed in last 2 hours?,Alcohol or smoking in last 12 hours?,0.009561200000462122,0.055741000003763475,,,,,,,,,,,,,,,,,,,,,,,,,,,,,,,,,,,,,,,,,,,,,,,,,,,,,,,,,,,,,,,,sub59_NB,001,2026-01-27_13h32.08.608,recognitionstage,,2025.1.1,59.9393533627573,2026-01-27 13h33.53.295885 +0530,
,,,,,,,,,,,,,,,,,,,,,,,,,21,Male,Right handed,Normal,,,,,0.05577079999784473,0.07643000000098255,0.07643000000098255,8.16454209999938,space,8.087327599998389,None,,,,,,,,,,,,,,,,,,,,,,,,,,,,,,,,,,,,,,,,,,,,,,,,,,,,,,,,,sub59_NB,001,2026-01-27_13h32.08.608,recognitionstage,,2025.1.1,59.9393533627573,2026-01-27 13h33.53.295885 +0530,
,,,,,,,,,,,,,,,,,,,,,,,,,21,Male,Right handed,Normal,,,,,,,,,,,,8.164596399998118,8.180062599996745,8.180062599996745,16.81417969999893,space,8.615583799997694,None,,,,,,,,,,,,,,,,,,,,,,,,,,,,,,,,,,,,,,,,,,,,,,,,,,sub59_NB,001,2026-01-27_13h32.08.608,recognitionstage,,2025.1.1,59.9393533627573,2026-01-27 13h33.53.295885 +0530,
Trimmed_videos/natural_28.mp4,48,1,44,44,0,,,,,,,,,,0,44,44,30,,,,,1544.3284235000028,,21,Male,Right handed,Normal,,,,,,,,,,,,,,,,,,,1544.2824418000018,1544.3284235000028,1544.3284235000028,1541.061278000001,1545.9145266999985,space,1,1,1546.0478470000016,1546.0610123000006,1548.5470171999987,1548.5626042000004,1.5795998999965377,None,1548.5470787000013,1548.5626042000004,1548.5626042000004,1579.1305472000022,space,30.56191630000103,None,,,,,,,,,,,,,,,,,,,,,,,,,,,,,sub59_NB,001,2026-01-27_13h32.08.608,recognitionstage,,2025.1.1,59.9393533627573,2026-01-27 13h33.53.295885 +0530,
,,,0,0,0,33,frames\Vid33_BB_T.png,frames\Vid33_L.png,['r'],1,[12.90551360000245],[None],5,5.680770400002075,,,,,0,0,0,32,1579.2105311999985,,21,Male,Right handed,Normal,,,,,,,,,,,,,,,,,,,,,,,,,,,,,,,,,,,,,,,,1579.1878427999982,1579.2105311999985,1579.2105311999985,1579.2105311999985,1579.2105311999985,1579.2105311999985,1579.2105311999985,1592.1310123000003,['r'],1,[12.90551360000245],[None],1592.132054499998,1592.1449926999994,1592.1449926999994,1592.1449926999994,1597.830132199997,5,5.680770400002075,5,5.680770400002075,,,,,,,,sub59_NB,001,2026-01-27_13h32.08.608,recognitionstage,,2025.1.1,59.9393533627573,2026-01-27 13h33.53.295885 +0530,
,,,1,1,0,38,frames\Vid38_EM_T.png,frames\Vid38_L.png,['r'],0,[8.206876700001885],[None],4,3.7138099999938277,,,,,0,1,1,37,1597.877147799998,,21,Male,Right handed,Normal,,,,,,,,,,,,,,,,,,,,,,,,,,,,,,,,,,,,,,,,1597.8663675999996,1597.877147799998,1597.877147799998,1597.877147799998,1597.877147799998,1597.877147799998,1597.877147799998,1606.0979292999982,['r'],0,[8.206876700001885],[None],1606.0990103000004,1606.1116452999995,1606.1116452999995,1606.1116452999995,1609.8301625000022,4,3.7138099999938277,4,3.7138099999938277,,,,,,,,sub59_NB,001,2026-01-27_13h32.08.608,recognitionstage,,2025.1.1,59.9393533627573,2026-01-27 13h33.53.295885 +0530,
,,,2,2,0,19,frames\Vid19_BB_T.png,frames\Vid19_L.png,['l'],1,[14.885029400000349],[None],3,3.0977796000006492,,,,,0,2,2,18,1609.8950364999982,,21,Male,Right handed,Normal,,,,,,,,,,,,,,,,,,,,,,,,,,,,,,,,,,,,,,,,1609.8774890999994,1609.8950364999982,1609.8950364999982,1609.8950364999982,1609.8950364999982,1609.8950364999982,1609.8950364999982,1624.7814426999976,['l'],1,[14.885029400000349],[None],1624.7823788000023,1624.7951097999976,1624.7951097999976,1624.7951097999976,1627.8962175999986,3,3.0977796000006492,3,3.0977796000006492,,,,,,,,sub59_NB,001,2026-01-27_13h32.08.608,recognitionstage,,2025.1.1,59.9393533627573,2026-01-27 13h33.53.295885 +0530,
,,,3,3,0,22,frames\Vid22_EM_T.png,frames\Vid22_L.png,['r'],1,[4.731111299995973],[None],5,1.09889110000222,,,,,0,3,3,21,1627.9450799999977,,21,Male,Right handed,Normal,,,,,,,,,,,,,,,,,,,,,,,,,,,,,,,,,,,,,,,,1627.9270105000032,1627.9450799999977,1627.9450799999977,1627.9450799999977,1627.9450799999977,1627.9450799999977,1627.9450799999977,1632.6803075999997,['r'],1,[4.731111299995973],[None],1632.6811401000014,1632.6954802999971,1632.6954802999971,1632.6954802999971,1633.7968762000019,5,1.09889110000222,5,1.09889110000222,,,,,,,,sub59_NB,001,2026-01-27_13h32.08.608,recognitionstage,,2025.1.1,59.9393533627573,2026-01-27 13h33.53.295885 +0530,
,,,4,4,0,27,frames\Vid27_BB_T.png,frames\Vid27_L.png,['l'],1,[3.894437000002654],[None],5,1.8314947999970173,,,,,0,4,4,26,1633.8455908000033,,21,Male,Right handed,Normal,,,,,,,,,,,,,,,,,,,,,,,,,,,,,,,,,,,,,,,,1633.8251710999975,1633.8455908000033,1633.8455908000033,1633.8455908000033,1633.8455908000033,1633.8455908000033,1633.8455908000033,1637.7471201000008,['l'],1,[3.894437000002654],[None],1637.747888400001,1637.762424200002,1637.762424200002,1637.762424200002,1639.5966285999966,5,1.8314947999970173,5,1.8314947999970173,,,,,,,,sub59_NB,001,2026-01-27_13h32.08.608,recognitionstage,,2025.1.1,59.9393533627573,2026-01-27 13h33.53.295885 +0530,
,,,5,5,0,12,frames\Vid12_EM_T.png,frames\Vid12_L.png,['r'],1,[10.916954599997553],[None],4,1.2145343000011053,,,,,0,5,5,11,1639.6790169000014,,21,Male,Right handed,Normal,,,,,,,,,,,,,,,,,,,,,,,,,,,,,,,,,,,,,,,,1639.6608655000018,1639.6790169000014,1639.6790169000014,1639.6790169000014,1639.6790169000014,1639.6790169000014,1639.6790169000014,1650.597404799999,['r'],1,[10.916954599997553],[None],1650.5982625000033,1650.6117836999983,1650.6117836999983,1650.6117836999983,1651.8291973000014,4,1.2145343000011053,4,1.2145343000011053,,,,,,,,sub59_NB,001,2026-01-27_13h32.08.608,recognitionstage,,2025.1.1,59.9393533627573,2026-01-27 13h33.53.295885 +0530,
,,,6,6,0,21,frames\Vid21_BB_T.png,frames\Vid21_L.png,['l'],1,[8.966741000003822],[None],3,4.399255299998913,,,,,0,6,6,20,1651.877241299997,,21,Male,Right handed,Normal,,,,,,,,,,,,,,,,,,,,,,,,,,,,,,,,,,,,,,,,1651.8715704999995,1651.877241299997,1651.877241299997,1651.877241299997,1651.877241299997,1651.877241299997,1651.877241299997,1660.8470941999985,['l'],1,[8.966741000003822],[None],1660.8480150999967,1660.8621459999995,1660.8621459999995,1660.8621459999995,1665.2627427999978,3,4.399255299998913,3,4.399255299998913,,,,,,,,sub59_NB,001,2026-01-27_13h32.08.608,recognitionstage,,2025.1.1,59.9393533627573,2026-01-27 13h33.53.295885 +0530,
,,,7,7,0,32,frames\Vid32_EM_T.png,frames\Vid32_L.png,['r'],1,[4.50792519999959],[None],5,1.4811253000007127,,,,,0,7,7,31,1665.3122250000015,,21,Male,Right handed,Normal,,,,,,,,,,,,,,,,,,,,,,,,,,,,,,,,,,,,,,,,1665.292238599999,1665.3122250000015,1665.3122250000015,1665.3122250000015,1665.3122250000015,1665.3122250000015,1665.3122250000015,1669.8306888000006,['r'],1,[4.50792519999959],[None],1669.8315626999974,1669.8450540999984,1669.8450540999984,1669.8450540999984,1671.3293800000029,5,1.4811253000007127,5,1.4811253000007127,,,,,,,,sub59_NB,001,2026-01-27_13h32.08.608,recognitionstage,,2025.1.1,59.9393533627573,2026-01-27 13h33.53.295885 +0530,
,,,8,8,0,28,frames\Vid28_EM_T.png,frames\Vid28_L.png,['r'],1,[2.88907769999787],[None],5,1.2306356000044616,,,,,0,8,8,27,1671.3788963999978,,21,Male,Right handed,Normal,,,,,,,,,,,,,,,,,,,,,,,,,,,,,,,,,,,,,,,,1671.3576109999995,1671.3788963999978,1671.3788963999978,1671.3788963999978,1671.3788963999978,1671.3788963999978,1671.3788963999978,1674.2807863999988,['r'],1,[2.88907769999787],[None],1674.2819882999975,1674.2954589,1674.2954589,1674.2954589,1675.529450599999,5,1.2306356000044616,5,1.2306356000044616,,,,,,,,sub59_NB,001,2026-01-27_13h32.08.608,recognitionstage,,2025.1.1,59.9393533627573,2026-01-27 13h33.53.295885 +0530,
,,,9,9,0,18,frames\Vid18_EM_T.png,frames\Vid18_L.png,['l'],1,[12.60123300000123],[None],3,4.9808629999970435,,,,,0,9,9,17,1675.578843299998,,21,Male,Right handed,Normal,,,,,,,,,,,,,,,,,,,,,,,,,,,,,,,,,,,,,,,,1675.5585912000024,1675.578843299998,1675.578843299998,1675.578843299998,1675.578843299998,1675.578843299998,1675.578843299998,1688.1808403000032,['l'],1,[12.60123300000123],[None],1688.1818426000027,1688.1957309999998,1688.1957309999998,1688.1957309999998,1693.1793440000038,3,4.9808629999970435,3,4.9808629999970435,,,,,,,,sub59_NB,001,2026-01-27_13h32.08.608,recognitionstage,,2025.1.1,59.9393533627573,2026-01-27 13h33.53.295885 +0530,
,,,10,10,0,17,frames\Vid17_BB_T.png,frames\Vid17_L.png,['r'],0,[18.631326399998215],[None],1,3.3465226999978768,,,,,0,10,10,16,1693.2288487999976,,21,Male,Right handed,Normal,,,,,,,,,,,,,,,,,,,,,,,,,,,,,,,,,,,,,,,,1693.2215332999986,1693.2288487999976,1693.2288487999976,1693.2288487999976,1693.2288487999976,1693.2288487999976,1693.2288487999976,1711.8652673000033,['r'],0,[18.631326399998215],[None],1711.8670369000029,1711.8935676000037,1711.8935676000037,1711.8935676000037,1715.2293293000039,1,3.3465226999978768,1,3.3465226999978768,,,,,,,,sub59_NB,001,2026-01-27_13h32.08.608,recognitionstage,,2025.1.1,59.9393533627573,2026-01-27 13h33.53.295885 +0530,
,,,11,11,0,8,frames\Vid8_BB_T.png,frames\Vid8_L.png,['l'],0,[3.154908800002886],[None],5,1.7311188999956357,,,,,0,11,11,7,1715.2970876000036,,21,Male,Right handed,Normal,,,,,,,,,,,,,,,,,,,,,,,,,,,,,,,,,,,,,,,,1715.2857160999993,1715.2970876000036,1715.2970876000036,1715.2970876000036,1715.2970876000036,1715.2970876000036,1715.2970876000036,1718.463934200001,['l'],0,[3.154908800002886],[None],1718.4649909,1718.4789907000013,1718.4789907000013,1718.4789907000013,1720.2135869999984,5,1.7311188999956357,5,1.7311188999956357,,,,,,,,sub59_NB,001,2026-01-27_13h32.08.608,recognitionstage,,2025.1.1,59.9393533627573,2026-01-27 13h33.53.295885 +0530,
,,,12,12,0,13,frames\Vid13_BB_T.png,frames\Vid13_L.png,['r'],1,[6.865924500001711],[None],5,2.2979056000040146,,,,,0,12,12,12,1720.2821441999986,,21,Male,Right handed,Normal,,,,,,,,,,,,,,,,,,,,,,,,,,,,,,,,,,,,,,,,1720.2629189,1720.2821441999986,1720.2821441999986,1720.2821441999986,1720.2821441999986,1720.2821441999986,1720.2821441999986,1727.1644766000027,['r'],1,[6.865924500001711],[None],1727.1654535999987,1727.1784480999995,1727.1784480999995,1727.1784480999995,1729.4790766000006,5,2.2979056000040146,5,2.2979056000040146,,,,,,,,sub59_NB,001,2026-01-27_13h32.08.608,recognitionstage,,2025.1.1,59.9393533627573,2026-01-27 13h33.53.295885 +0530,
,,,13,13,0,36,frames\Vid36_BB_T.png,frames\Vid36_L.png,['l'],1,[4.992127899997286],[None],3,0.6979696999987937,,,,,0,13,13,35,1729.5479515999978,,21,Male,Right handed,Normal,,,,,,,,,,,,,,,,,,,,,,,,,,,,,,,,,,,,,,,,1729.5287909000035,1729.5479515999978,1729.5479515999978,1729.5479515999978,1729.5479515999978,1729.5479515999978,1729.5479515999978,1734.5470523999975,['l'],1,[4.992127899997286],[None],1734.5481044999979,1734.5770773999975,1734.5770773999975,1734.5770773999975,1735.2626068000027,3,0.6979696999987937,3,0.6979696999987937,,,,,,,,sub59_NB,001,2026-01-27_13h32.08.608,recognitionstage,,2025.1.1,59.9393533627573,2026-01-27 13h33.53.295885 +0530,
,,,14,14,0,26,frames\Vid26_EM_T.png,frames\Vid26_L.png,['r'],1,[1.9960740999958944],[None],5,4.2981576999955,,,,,0,14,14,25,1735.312152300001,,21,Male,Right handed,Normal,,,,,,,,,,,,,,,,,,,,,,,,,,,,,,,,,,,,,,,,1735.2942477999968,1735.312152300001,1735.312152300001,1735.312152300001,1735.312152300001,1735.312152300001,1735.312152300001,1737.3137248999992,['r'],1,[1.9960740999958944],[None],1737.3146498999995,1737.3288082,1737.3288082,1737.3288082,1741.630261899998,5,4.2981576999955,5,4.2981576999955,,,,,,,,sub59_NB,001,2026-01-27_13h32.08.608,recognitionstage,,2025.1.1,59.9393533627573,2026-01-27 13h33.53.295885 +0530,
,,,15,15,0,37,frames\Vid37_BB_T.png,frames\Vid37_L.png,['r'],1,[4.453059200001007],[None],5,1.5319075000006706,,,,,0,15,15,36,1741.6788627999995,,21,Male,Right handed,Normal,,,,,,,,,,,,,,,,,,,,,,,,,,,,,,,,,,,,,,,,1741.6602312000032,1741.6788627999995,1741.6788627999995,1741.6788627999995,1741.6788627999995,1741.6788627999995,1741.6788627999995,1746.146575699997,['r'],1,[4.453059200001007],[None],1746.1474783000012,1746.162219400001,1746.162219400001,1746.162219400001,1747.6960274000012,5,1.5319075000006706,5,1.5319075000006706,,,,,,,,sub59_NB,001,2026-01-27_13h32.08.608,recognitionstage,,2025.1.1,59.9393533627573,2026-01-27 13h33.53.295885 +0530,
,,,16,16,0,10,frames\Vid10_BB_T.png,frames\Vid10_L.png,['l'],1,[4.14570239999739],[None],4,1.2471395000029588,,,,,0,16,16,9,1747.7624502000035,,21,Male,Right handed,Normal,,,,,,,,,,,,,,,,,,,,,,,,,,,,,,,,,,,,,,,,1747.7557101999992,1747.7624502000035,1747.7624502000035,1747.7624502000035,1747.7624502000035,1747.7624502000035,1747.7624502000035,1751.9145577000018,['l'],1,[4.14570239999739],[None],1751.9155175999986,1751.9283662000016,1751.9283662000016,1751.9283662000016,1753.1796306000033,4,1.2471395000029588,4,1.2471395000029588,,,,,,,,sub59_NB,001,2026-01-27_13h32.08.608,recognitionstage,,2025.1.1,59.9393533627573,2026-01-27 13h33.53.295885 +0530,
,,,17,17,0,3,frames\Vid3_BB_T.png,frames\Vid3_L.png,['r'],1,[7.226494900001853],[None],3,2.8977627999993274,,,,,0,17,17,2,1753.2656805000006,,21,Male,Right handed,Normal,,,,,,,,,,,,,,,,,,,,,,,,,,,,,,,,,,,,,,,,1753.2528703999997,1753.2656805000006,1753.2656805000006,1753.2656805000006,1753.2656805000006,1753.2656805000006,1753.2656805000006,1760.497240800003,['r'],1,[7.226494900001853],[None],1760.4982662999973,1760.5121651000009,1760.5121651000009,1760.5121651000009,1763.4126086999968,3,2.8977627999993274,3,2.8977627999993274,,,,,,,,sub59_NB,001,2026-01-27_13h32.08.608,recognitionstage,,2025.1.1,59.9393533627573,2026-01-27 13h33.53.295885 +0530,
,,,18,18,0,16,frames\Vid16_EM_T.png,frames\Vid16_L.png,['l'],0,[5.5061619999978575],[None],3,0.7976194000002579,,,,,0,18,18,15,1763.4818640000012,,21,Male,Right handed,Normal,,,,,,,,,,,,,,,,,,,,,,,,,,,,,,,,,,,,,,,,1763.4690332000027,1763.4818640000012,1763.4818640000012,1763.4818640000012,1763.4818640000012,1763.4818640000012,1763.4818640000012,1768.9979578999992,['l'],0,[5.5061619999978575],[None],1768.9991378999985,1769.0117374999973,1769.0117374999973,1769.0117374999973,1769.8123067999986,3,0.7976194000002579,3,0.7976194000002579,,,,,,,,sub59_NB,001,2026-01-27_13h32.08.608,recognitionstage,,2025.1.1,59.9393533627573,2026-01-27 13h33.53.295885 +0530,
,,,19,19,0,31,frames\Vid31_EM_T.png,frames\Vid31_L.png,['r'],0,[4.8923436000040965],[None],2,2.0978168999936315,,,,,0,19,19,30,1769.8477700000003,,21,Male,Right handed,Normal,,,,,,,,,,,,,,,,,,,,,,,,,,,,,,,,,,,,,,,,1769.8371754000036,1769.8477700000003,1769.8477700000003,1769.8477700000003,1769.8477700000003,1769.8477700000003,1769.8477700000003,1774.7473490999982,['r'],0,[4.8923436000040965],[None],1774.748588800001,1774.7621366000021,1774.7621366000021,1774.7621366000021,1776.8627078999998,2,2.0978168999936315,2,2.0978168999936315,,,,,,,,sub59_NB,001,2026-01-27_13h32.08.608,recognitionstage,,2025.1.1,59.9393533627573,2026-01-27 13h33.53.295885 +0530,
,,,20,20,0,20,frames\Vid20_EM_T.png,frames\Vid20_L.png,['l'],1,[4.013329999994312],[None],4,1.2468225000047823,,,,,0,20,20,19,1776.8949691000016,,21,Male,Right handed,Normal,,,,,,,,,,,,,,,,,,,,,,,,,,,,,,,,,,,,,,,,1776.8823151999968,1776.8949691000016,1776.8949691000016,1776.8949691000016,1776.8949691000016,1776.8949691000016,1776.8949691000016,1780.9148984999993,['l'],1,[4.013329999994312],[None],1780.9160504000029,1780.928623599997,1780.928623599997,1780.928623599997,1782.179688600001,4,1.2468225000047823,4,1.2468225000047823,,,,,,,,sub59_NB,001,2026-01-27_13h32.08.608,recognitionstage,,2025.1.1,59.9393533627573,2026-01-27 13h33.53.295885 +0530,
,,,21,21,0,40,frames\Vid40_EM_T.png,frames\Vid40_L.png,['r'],1,[8.744390799998655],[None],4,1.0653757999971276,,,,,0,21,21,39,1782.2116291999992,,21,Male,Right handed,Normal,,,,,,,,,,,,,,,,,,,,,,,,,,,,,,,,,,,,,,,,1782.2017051000003,1782.2116291999992,1782.2116291999992,1782.2116291999992,1782.2116291999992,1782.2116291999992,1782.2116291999992,1790.9641800000027,['r'],1,[8.744390799998655],[None],1790.9651486000002,1790.978761899998,1790.978761899998,1790.978761899998,1792.0463471999974,4,1.0653757999971276,4,1.0653757999971276,,,,,,,,sub59_NB,001,2026-01-27_13h32.08.608,recognitionstage,,2025.1.1,59.9393533627573,2026-01-27 13h33.53.295885 +0530,
,,,22,22,0,1,frames\Vid1_EM_T.png,frames\Vid1_L.png,['l'],1,[11.698985499999253],[None],3,1.3157161999988602,,,,,0,22,22,0,1792.1290445999985,,21,Male,Right handed,Normal,,,,,,,,,,,,,,,,,,,,,,,,,,,,,,,,,,,,,,,,1792.1134735000014,1792.1290445999985,1792.1290445999985,1792.1290445999985,1792.1290445999985,1792.1290445999985,1792.1290445999985,1803.830384300003,['l'],1,[11.698985499999253],[None],1803.8312383000011,1803.8456793000005,1803.8456793000005,1803.8456793000005,1805.1623757999987,3,1.3157161999988602,3,1.3157161999988602,,,,,,,,sub59_NB,001,2026-01-27_13h32.08.608,recognitionstage,,2025.1.1,59.9393533627573,2026-01-27 13h33.53.295885 +0530,
,,,23,23,0,25,frames\Vid25_BB_T.png,frames\Vid25_L.png,['l'],0,[14.421186599996872],[None],4,1.5136901999940164,,,,,0,23,23,24,1805.2150731000002,,21,Male,Right handed,Normal,,,,,,,,,,,,,,,,,,,,,,,,,,,,,,,,,,,,,,,,1805.1907905999979,1805.2150731000002,1805.2150731000002,1805.2150731000002,1805.2150731000002,1805.2150731000002,1805.2150731000002,1819.6485224999997,['l'],0,[14.421186599996872],[None],1819.650329199998,1819.6620439000035,1819.6620439000035,1819.6620439000035,1821.179409700002,4,1.5136901999940164,4,1.5136901999940164,,,,,,,,sub59_NB,001,2026-01-27_13h32.08.608,recognitionstage,,2025.1.1,59.9393533627573,2026-01-27 13h33.53.295885 +0530,
,,,24,24,0,39,frames\Vid39_BB_T.png,frames\Vid39_L.png,['r'],1,[5.880142699999851],[None],5,1.4648229999947944,,,,,0,24,24,38,1821.2120450000002,,21,Male,Right handed,Normal,,,,,,,,,,,,,,,,,,,,,,,,,,,,,,,,,,,,,,,,1821.2047346000036,1821.2120450000002,1821.2120450000002,1821.2120450000002,1821.2120450000002,1821.2120450000002,1821.2120450000002,1827.0978469999973,['r'],1,[5.880142699999851],[None],1827.0989009999976,1827.1118076999992,1827.1118076999992,1827.1118076999992,1828.5795682000025,5,1.4648229999947944,5,1.4648229999947944,,,,,,,,sub59_NB,001,2026-01-27_13h32.08.608,recognitionstage,,2025.1.1,59.9393533627573,2026-01-27 13h33.53.295885 +0530,
,,,25,25,0,15,frames\Vid15_BB_T.png,frames\Vid15_L.png,['l'],1,[3.876754000004439],[None],4,0.847616699997161,,,,,0,25,25,14,1828.6793020999976,,21,Male,Right handed,Normal,,,,,,,,,,,,,,,,,,,,,,,,,,,,,,,,,,,,,,,,1828.6675449000031,1828.6793020999976,1828.6793020999976,1828.6793020999976,1828.6793020999976,1828.6793020999976,1828.6793020999976,1832.5641945000025,['l'],1,[3.876754000004439],[None],1832.5650355000034,1832.578409200003,1832.578409200003,1832.578409200003,1833.4295464000024,4,0.847616699997161,4,0.847616699997161,,,,,,,,sub59_NB,001,2026-01-27_13h32.08.608,recognitionstage,,2025.1.1,59.9393533627573,2026-01-27 13h33.53.295885 +0530,
,,,26,26,0,6,frames\Vid6_BB_T.png,frames\Vid6_L.png,['l'],1,[5.048847500002012],[None],5,1.2817043000031845,,,,,0,26,26,5,1833.5155114000008,,21,Male,Right handed,Normal,,,,,,,,,,,,,,,,,,,,,,,,,,,,,,,,,,,,,,,,1833.493272300002,1833.5155114000008,1833.5155114000008,1833.5155114000008,1833.5155114000008,1833.5155114000008,1833.5155114000008,1838.5805043,['l'],1,[5.048847500002012],[None],1838.5814755000029,1838.595495200003,1838.595495200003,1838.595495200003,1839.8790057000006,5,1.2817043000031845,5,1.2817043000031845,,,,,,,,sub59_NB,001,2026-01-27_13h32.08.608,recognitionstage,,2025.1.1,59.9393533627573,2026-01-27 13h33.53.295885 +0530,
,,,27,27,0,29,frames\Vid29_BB_T.png,frames\Vid29_L.png,['r'],1,[4.289192500000354],[None],5,1.031432900002983,,,,,0,27,27,28,1839.9152044000002,,21,Male,Right handed,Normal,,,,,,,,,,,,,,,,,,,,,,,,,,,,,,,,,,,,,,,,1839.9064155000015,1839.9152044000002,1839.9152044000002,1839.9152044000002,1839.9152044000002,1839.9152044000002,1839.9152044000002,1844.2145141,['r'],1,[4.289192500000354],[None],1844.2156517999974,1844.2288651999988,1844.2288651999988,1844.2288651999988,1845.2634707000034,5,1.031432900002983,5,1.031432900002983,,,,,,,,sub59_NB,001,2026-01-27_13h32.08.608,recognitionstage,,2025.1.1,59.9393533627573,2026-01-27 13h33.53.295885 +0530,
,,,28,28,0,11,frames\Vid11_EM_T.png,frames\Vid11_L.png,['r'],1,[2.609860299999127],[None],5,1.0147652000014205,,,,,0,28,28,10,1845.3623380999998,,21,Male,Right handed,Normal,,,,,,,,,,,,,,,,,,,,,,,,,,,,,,,,,,,,,,,,1845.3415774000023,1845.3623380999998,1845.3623380999998,1845.3623380999998,1845.3623380999998,1845.3623380999998,1845.3623380999998,1847.9810778000028,['r'],1,[2.609860299999127],[None],1847.982130700002,1847.9950950999992,1847.9950950999992,1847.9950950999992,1849.0133782999983,5,1.0147652000014205,5,1.0147652000014205,,,,,,,,sub59_NB,001,2026-01-27_13h32.08.608,recognitionstage,,2025.1.1,59.9393533627573,2026-01-27 13h33.53.295885 +0530,
,,,29,29,0,9,frames\Vid9_EM_T.png,frames\Vid9_L.png,['r'],1,[8.26655010000104],[None],4,2.4986693000028026,,,,,0,29,29,8,1849.0816590999966,,21,Male,Right handed,Normal,,,,,,,,,,,,,,,,,,,,,,,,,,,,,,,,,,,,,,,,1849.067600399998,1849.0816590999966,1849.0816590999966,1849.0816590999966,1849.0816590999966,1849.0816590999966,1849.0816590999966,1857.3648226000005,['r'],1,[8.26655010000104],[None],1857.3659765999982,1857.378434600003,1857.378434600003,1857.378434600003,1859.8791750000019,4,2.4986693000028026,4,2.4986693000028026,,,,,,,,sub59_NB,001,2026-01-27_13h32.08.608,recognitionstage,,2025.1.1,59.9393533627573,2026-01-27 13h33.53.295885 +0530,
,,,30,30,0,5,frames\Vid5_EM_T.png,frames\Vid5_L.png,['l'],1,[3.9437653999993927],[None],3,1.6803899000005913,,,,,0,30,30,4,1859.9648307000025,,21,Male,Right handed,Normal,,,,,,,,,,,,,,,,,,,,,,,,,,,,,,,,,,,,,,,,1859.9497196000011,1859.9648307000025,1859.9648307000025,1859.9648307000025,1859.9648307000025,1859.9648307000025,1859.9648307000025,1863.9155535000027,['l'],1,[3.9437653999993927],[None],1863.917139600002,1863.943367699998,1863.943367699998,1863.943367699998,1865.612495100002,3,1.6803899000005913,3,1.6803899000005913,,,,,,,,sub59_NB,001,2026-01-27_13h32.08.608,recognitionstage,,2025.1.1,59.9393533627573,2026-01-27 13h33.53.295885 +0530,
,,,31,31,0,34,frames\Vid34_BB_T.png,frames\Vid34_L.png,['r'],0,[7.0770335999986855],[None],4,1.3315704000051483,,,,,0,31,31,33,1865.6474206999992,,21,Male,Right handed,Normal,,,,,,,,,,,,,,,,,,,,,,,,,,,,,,,,,,,,,,,,1865.6397818999976,1865.6474206999992,1865.6474206999992,1865.6474206999992,1865.6474206999992,1865.6474206999992,1865.6474206999992,1872.7309335000027,['r'],0,[7.0770335999986855],[None],1872.7318381000005,1872.745155800003,1872.745155800003,1872.745155800003,1874.0789594000016,4,1.3315704000051483,4,1.3315704000051483,,,,,,,,sub59_NB,001,2026-01-27_13h32.08.608,recognitionstage,,2025.1.1,59.9393533627573,2026-01-27 13h33.53.295885 +0530,
,,,32,32,0,14,frames\Vid14_BB_T.png,frames\Vid14_L.png,['l'],1,[2.2816533999939566],[None],2,1.811865299998317,,,,,0,32,32,13,1874.1626525000029,,21,Male,Right handed,Normal,,,,,,,,,,,,,,,,,,,,,,,,,,,,,,,,,,,,,,,,1874.1436869000026,1874.1626525000029,1874.1626525000029,1874.1626525000029,1874.1626525000029,1874.1626525000029,1874.1626525000029,1876.4495812000023,['l'],1,[2.2816533999939566],[None],1876.4513780999987,1876.4770093999978,1876.4770093999978,1876.4770093999978,1878.2790670000031,2,1.811865299998317,2,1.811865299998317,,,,,,,,sub59_NB,001,2026-01-27_13h32.08.608,recognitionstage,,2025.1.1,59.9393533627573,2026-01-27 13h33.53.295885 +0530,
,,,33,33,0,24,frames\Vid24_BB_T.png,frames\Vid24_L.png,['l'],1,[8.50469489999523],[None],3,1.2474622000008821,,,,,0,33,33,23,1878.3313906999974,,21,Male,Right handed,Normal,,,,,,,,,,,,,,,,,,,,,,,,,,,,,,,,,,,,,,,,1878.3114233000015,1878.3313906999974,1878.3313906999974,1878.3313906999974,1878.3313906999974,1878.3313906999974,1878.3313906999974,1886.8476024999982,['l'],1,[8.50469489999523],[None],1886.8485201000003,1886.8618083999972,1886.8618083999972,1886.8618083999972,1888.1131242999982,3,1.2474622000008821,3,1.2474622000008821,,,,,,,,sub59_NB,001,2026-01-27_13h32.08.608,recognitionstage,,2025.1.1,59.9393533627573,2026-01-27 13h33.53.295885 +0530,
,,,34,34,0,23,frames\Vid23_EM_T.png,frames\Vid23_L.png,['l'],1,[6.649811999996018],[None],3,1.0984986000039498,,,,,0,34,34,22,1888.1622572999986,,21,Male,Right handed,Normal,,,,,,,,,,,,,,,,,,,,,,,,,,,,,,,,,,,,,,,,1888.1476793000038,1888.1622572999986,1888.1622572999986,1888.1622572999986,1888.1622572999986,1888.1622572999986,1888.1622572999986,1894.8143783999985,['l'],1,[6.649811999996018],[None],1894.8153447000004,1894.8285075000022,1894.8285075000022,1894.8285075000022,1895.9296646000003,3,1.0984986000039498,3,1.0984986000039498,,,,,,,,sub59_NB,001,2026-01-27_13h32.08.608,recognitionstage,,2025.1.1,59.9393533627573,2026-01-27 13h33.53.295885 +0530,
,,,35,35,0,4,frames\Vid4_EM_T.png,frames\Vid4_L.png,['r'],1,[5.975510500000382],[None],4,1.231087899999693,,,,,0,35,35,3,1896.0128066000034,,21,Male,Right handed,Normal,,,,,,,,,,,,,,,,,,,,,,,,,,,,,,,,,,,,,,,,1895.9975589000023,1896.0128066000034,1896.0128066000034,1896.0128066000034,1896.0128066000034,1896.0128066000034,1896.0128066000034,1901.9979973000009,['r'],1,[5.975510500000382],[None],1901.999031899999,1902.0270668000012,1902.0270668000012,1902.0270668000012,1903.246437599999,4,1.231087899999693,4,1.231087899999693,,,,,,,,sub59_NB,001,2026-01-27_13h32.08.608,recognitionstage,,2025.1.1,59.9393533627573,2026-01-27 13h33.53.295885 +0530,
,,,36,36,0,7,frames\Vid7_EM_T.png,frames\Vid7_L.png,['r'],1,[7.495986300004006],[None],3,1.2151448000004166,,,,,0,36,36,6,1903.3321128000025,,21,Male,Right handed,Normal,,,,,,,,,,,,,,,,,,,,,,,,,,,,,,,,,,,,,,,,1903.3083811000033,1903.3321128000025,1903.3321128000025,1903.3321128000025,1903.3321128000025,1903.3321128000025,1903.3321128000025,1910.8307442000005,['r'],1,[7.495986300004006],[None],1910.8317077000029,1910.8458170000013,1910.8458170000013,1910.8458170000013,1912.0629966999986,3,1.2151448000004166,3,1.2151448000004166,,,,,,,,sub59_NB,001,2026-01-27_13h32.08.608,recognitionstage,,2025.1.1,59.9393533627573,2026-01-27 13h33.53.295885 +0530,
,,,37,37,0,2,frames\Vid2_BB_T.png,frames\Vid2_L.png,['l'],1,[3.792463100005989],[None],4,0.9158170000009704,,,,,0,37,37,1,1912.1316496,,21,Male,Right handed,Normal,,,,,,,,,,,,,,,,,,,,,,,,,,,,,,,,,,,,,,,,1912.1208511000004,1912.1316496,1912.1316496,1912.1316496,1912.1316496,1912.1316496,1912.1316496,1915.9308558999983,['l'],1,[3.792463100005989],[None],1915.931804300002,1915.9458448000005,1915.9458448000005,1915.9458448000005,1916.8629729000022,4,0.9158170000009704,4,0.9158170000009704,,,,,,,,sub59_NB,001,2026-01-27_13h32.08.608,recognitionstage,,2025.1.1,59.9393533627573,2026-01-27 13h33.53.295885 +0530,
,,,38,38,0,30,frames\Vid30_EM_T.png,frames\Vid30_L.png,['r'],1,[5.82481800000096],[None],5,1.2649639999945066,,,,,0,38,38,29,1916.9151887999978,,21,Male,Right handed,Normal,,,,,,,,,,,,,,,,,,,,,,,,,,,,,,,,,,,,,,,,1916.8930213999993,1916.9151887999978,1916.9151887999978,1916.9151887999978,1916.9151887999978,1916.9151887999978,1916.9151887999978,1922.7469255999968,['r'],1,[5.82481800000096],[None],1922.7477979999967,1922.7634573999967,1922.7634573999967,1922.7634573999967,1924.029483899998,5,1.2649639999945066,5,1.2649639999945066,,,,,,,,sub59_NB,001,2026-01-27_13h32.08.608,recognitionstage,,2025.1.1,59.9393533627573,2026-01-27 13h33.53.295885 +0530,
,,,39,39,0,35,frames\Vid35_EM_T.png,frames\Vid35_L.png,['r'],1,[7.829636800001026],[None],1,1.2480756000004476,,,,,0,39,39,34,1924.0786815000029,,21,Male,Right handed,Normal,,,,,,,,,,,,,,,,,,,,,,,,,,,,,,,,,,,,,,,,1924.0581738000037,1924.0786815000029,1924.0786815000029,1924.0786815000029,1924.0786815000029,1924.0786815000029,1924.0786815000029,1931.9141105000017,['r'],1,[7.829636800001026],[None],1931.9151206000024,1931.9289063999968,1931.9289063999968,1931.9289063999968,1933.1790833999985,1,1.2480756000004476,1,1.2480756000004476,,,,,,,,sub59_NB,001,2026-01-27_13h32.08.608,recognitionstage,,2025.1.1,59.9393533627573,2026-01-27 13h33.53.295885 +0530,
,,,,,,,,,,,,,,,,,,,,,,,,,21,Male,Right handed,Normal,,,,,,,,,,,,,,,,,,,,,,,,,,,,,,,,,,,,,,,,,,,,,,,,,,,,,,,,,,,,,1933.1791703999988,1933.1956671000007,1933.1956671000007,1951.1141984999995,space,17.91266270000051,None,sub59_NB,001,2026-01-27_13h32.08.608,recognitionstage,,2025.1.1,59.9393533627573,2026-01-27 13h33.53.295885 +0530,
