path,duration,is_repeat,thisN,thisTrialN,thisRepN,movie_id,target_img,lure_img,resp.keys,resp.corr,resp.rt,resp.duration,conf_radio.response,conf_radio.rt,movie.thisRepN,movie.thisTrialN,movie.thisN,movie.thisIndex,recogloop.thisRepN,recogloop.thisTrialN,recogloop.thisN,recogloop.thisIndex,thisRow.t,notes,age,gender,handedness,vision,caffeine_2h,alcohol_smoke_12h,demographics.started,demographics.stopped,Instructions.started,text1.started,key_resp.started,Instructions.stopped,key_resp.keys,key_resp.rt,key_resp.duration,instruction_2.started,text2.started,key_resp_2.started,instruction_2.stopped,key_resp_2.keys,key_resp_2.rt,key_resp_2.duration,Videos.started,movie_2.started,vigilance_resp.started,movie_2.stopped,Videos.stopped,movie.vigilance_resp.keys,vigilance_pressed,vigilance_correct,ISI.started,text.started,ISI.stopped,text.stopped,movie.vigilance_resp.rt,movie.vigilance_resp.duration,recognition.started,text_4.started,key_resp_3.started,recognition.stopped,key_resp_3.keys,key_resp_3.rt,key_resp_3.duration,recognition_task.started,leftimage.started,rightimage.started,resp.started,frames_question.started,right_label.started,left_label.started,recognition_task.stopped,recogloop.resp.keys,recogloop.resp.corr,recogloop.resp.rt,recogloop.resp.duration,confidence.started,conf_text.started,conf_radio.started,conf_label.started,confidence.stopped,recogloop.conf_radio.response,recogloop.conf_radio.rt,confidence,confidence_rt,thank_you.started,text_6.started,key_resp_4.started,thank_you.stopped,key_resp_4.keys,participant,session,date,expName,expVersion,psychopyVersion,frameRate,expStart,...103
,,,,,,,,,,,,,,,,,,,,,,,,,22,Male,Right handed,Normal,Caffeine consumed in last 2 hours?,Alcohol or smoking in last 12 hours?,0.011190400000486989,0.013693500004592352,,,,,,,,,,,,,,,,,,,,,,,,,,,,,,,,,,,,,,,,,,,,,,,,,,,,,,,,,,,,,,sub65_NB,001,2026-01-27_18h32.29.517,recognitionstage,,2025.1.1,59.9766331056066,2026-01-27 18h33.15.506833 +0530,
,,,,,,,,,,,,,,,,,,,,,,,,,22,Male,Right handed,Normal,,,,,0.013715300003241282,0.030099300005531404,0.030099300005531404,16.29961220000405,space,16.25731100000121,None,,,,,,,,,,,,,,,,,,,,,,,,,,,,,,,,,,,,,,,,,,,,,,,,,,,,,,,sub65_NB,001,2026-01-27_18h32.29.517,recognitionstage,,2025.1.1,59.9766331056066,2026-01-27 18h33.15.506833 +0530,
,,,,,,,,,,,,,,,,,,,,,,,,,22,Male,Right handed,Normal,,,,,,,,,,,,16.29968750000262,16.314491500001168,16.314491500001168,34.682446400001936,space,18.364959600003203,None,,,,,,,,,,,,,,,,,,,,,,,,,,,,,,,,,,,,,,,,,,,,,,,,sub65_NB,001,2026-01-27_18h32.29.517,recognitionstage,,2025.1.1,59.9766331056066,2026-01-27 18h33.15.506833 +0530,
Trimmed_videos/natural_24.mp4,25,0,44,44,0,,,,,,,,,,0,44,44,26,,,,,1564.5805106999978,,22,Male,Right handed,Normal,,,,,,,,,,,,,,,,,,,1564.5380039000083,1564.5805106999978,1564.5805106999978,1590.6295228000017,1590.4747867000042,None,0,1,1590.609963300005,1590.6295228000017,1593.1161304000052,1564.5805106999978,2.3155349000007845,None,1593.1162134999977,1593.131373300006,1593.131373300006,1637.683770399999,space,44.548259999995935,None,,,,,,,,,,,,,,,,,,,,,,,,,,,sub65_NB,001,2026-01-27_18h32.29.517,recognitionstage,,2025.1.1,59.9766331056066,2026-01-27 18h33.15.506833 +0530,
,,,0,0,0,34,frames\Vid34_BB_T.png,frames\Vid34_L.png,['r'],1,[14.111467800001265],[None],4,12.280822599990643,,,,,0,0,0,33,1637.7121170999962,,22,Male,Right handed,Normal,,,,,,,,,,,,,,,,,,,,,,,,,,,,,,,,,,,,,,,,1637.7034843000074,1637.7121170999962,1637.7121170999962,1637.7121170999962,1637.7121170999962,1637.7121170999962,1637.7121170999962,1651.8325983000032,['r'],1,[14.111467800001265],[None],1651.8336808000095,1651.8465933000043,1651.8465933000043,1651.8465933000043,1664.1315615999993,4,12.280822599990643,4,12.280822599990643,,,,,,sub65_NB,001,2026-01-27_18h32.29.517,recognitionstage,,2025.1.1,59.9766331056066,2026-01-27 18h33.15.506833 +0530,
,,,1,1,0,21,frames\Vid21_BB_T.png,frames\Vid21_L.png,['r'],1,[9.00517669999681],[None],5,2.531225300001097,,,,,0,1,1,20,1664.1623944000094,,22,Male,Right handed,Normal,,,,,,,,,,,,,,,,,,,,,,,,,,,,,,,,,,,,,,,,1664.1503030999957,1664.1623944000094,1664.1623944000094,1664.1623944000094,1664.1623944000094,1664.1623944000094,1664.1623944000094,1673.182459399999,['r'],1,[9.00517669999681],[None],1673.183425999996,1673.2121671999994,1673.2121671999994,1673.2121671999994,1675.7315034999992,5,2.531225300001097,5,2.531225300001097,,,,,,sub65_NB,001,2026-01-27_18h32.29.517,recognitionstage,,2025.1.1,59.9766331056066,2026-01-27 18h33.15.506833 +0530,
,,,2,2,0,25,frames\Vid25_BB_T.png,frames\Vid25_L.png,['l'],1,[13.827986799995415],[None],4,2.3832186000072397,,,,,0,2,2,24,1675.7635665000053,,22,Male,Right handed,Normal,,,,,,,,,,,,,,,,,,,,,,,,,,,,,,,,,,,,,,,,1675.7425543000063,1675.7635665000053,1675.7635665000053,1675.7635665000053,1675.7635665000053,1675.7635665000053,1675.7635665000053,1689.5985322999986,['l'],1,[13.827986799995415],[None],1689.5993797000046,1689.6140365999963,1689.6140365999963,1689.6140365999963,1691.9971382000003,4,2.3832186000072397,4,2.3832186000072397,,,,,,sub65_NB,001,2026-01-27_18h32.29.517,recognitionstage,,2025.1.1,59.9766331056066,2026-01-27 18h33.15.506833 +0530,
,,,3,3,0,39,frames\Vid39_BB_T.png,frames\Vid39_L.png,['l'],1,[6.496186600008514],[None],5,2.2639085999981035,,,,,0,3,3,38,1692.0153638999982,,22,Male,Right handed,Normal,,,,,,,,,,,,,,,,,,,,,,,,,,,,,,,,,,,,,,,,1692.0062858000092,1692.0153638999982,1692.0153638999982,1692.0153638999982,1692.0153638999982,1692.0153638999982,1692.0153638999982,1698.516441599997,['l'],1,[6.496186600008514],[None],1698.5175658000007,1698.5302528999964,1698.5302528999964,1698.5302528999964,1700.79721170001,5,2.2639085999981035,5,2.2639085999981035,,,,,,sub65_NB,001,2026-01-27_18h32.29.517,recognitionstage,,2025.1.1,59.9766331056066,2026-01-27 18h33.15.506833 +0530,
,,,4,4,0,38,frames\Vid38_EM_T.png,frames\Vid38_L.png,['l'],0,[33.103957899991656],[None],3,2.2472257999907015,,,,,0,4,4,37,1700.8156034000058,,22,Male,Right handed,Normal,,,,,,,,,,,,,,,,,,,,,,,,,,,,,,,,,,,,,,,,1700.8070078000092,1700.8156034000058,1700.8156034000058,1700.8156034000058,1700.8156034000058,1700.8156034000058,1700.8156034000058,1733.9327610999972,['l'],0,[33.103957899991656],[None],1733.9339243000068,1733.9622257000083,1733.9622257000083,1733.9622257000083,1736.1970475000053,3,2.2472257999907015,3,2.2472257999907015,,,,,,sub65_NB,001,2026-01-27_18h32.29.517,recognitionstage,,2025.1.1,59.9766331056066,2026-01-27 18h33.15.506833 +0530,
,,,5,5,0,37,frames\Vid37_BB_T.png,frames\Vid37_L.png,['l'],1,[3.265588599999319],[None],5,1.9649205999885453,,,,,0,5,5,36,1736.230038200003,,22,Male,Right handed,Normal,,,,,,,,,,,,,,,,,,,,,,,,,,,,,,,,,,,,,,,,1736.2081973999957,1736.230038200003,1736.230038200003,1736.230038200003,1736.230038200003,1736.230038200003,1736.230038200003,1739.4987684000007,['l'],1,[3.265588599999319],[None],1739.4996548999989,1739.513793500002,1739.513793500002,1739.513793500002,1741.4809783000019,5,1.9649205999885453,5,1.9649205999885453,,,,,,sub65_NB,001,2026-01-27_18h32.29.517,recognitionstage,,2025.1.1,59.9766331056066,2026-01-27 18h33.15.506833 +0530,
,,,6,6,0,24,frames\Vid24_BB_T.png,frames\Vid24_L.png,['l'],0,[32.19852449999598],[None],2,2.3818645999999717,,,,,0,6,6,23,1741.5134756999978,,22,Male,Right handed,Normal,,,,,,,,,,,,,,,,,,,,,,,,,,,,,,,,,,,,,,,,1741.4925752000054,1741.5134756999978,1741.5134756999978,1741.5134756999978,1741.5134756999978,1741.5134756999978,1741.5134756999978,1773.715539600009,['l'],0,[32.19852449999598],[None],1773.7165007000076,1773.731034000004,1773.731034000004,1773.731034000004,1776.1141908000063,2,2.3818645999999717,2,2.3818645999999717,,,,,,sub65_NB,001,2026-01-27_18h32.29.517,recognitionstage,,2025.1.1,59.9766331056066,2026-01-27 18h33.15.506833 +0530,
,,,7,7,0,28,frames\Vid28_EM_T.png,frames\Vid28_L.png,['l'],1,[2.564569100009976],[None],5,2.797688799997559,,,,,0,7,7,27,1776.1469357000096,,22,Male,Right handed,Normal,,,,,,,,,,,,,,,,,,,,,,,,,,,,,,,,,,,,,,,,1776.125942599996,1776.1469357000096,1776.1469357000096,1776.1469357000096,1776.1469357000096,1776.1469357000096,1776.1469357000096,1778.715529800007,['l'],1,[2.564569100009976],[None],1778.7165827000063,1778.7782508000018,1778.7782508000018,1778.7782508000018,1781.5309804000062,5,2.797688799997559,5,2.797688799997559,,,,,,sub65_NB,001,2026-01-27_18h32.29.517,recognitionstage,,2025.1.1,59.9766331056066,2026-01-27 18h33.15.506833 +0530,
,,,8,8,0,27,frames\Vid27_BB_T.png,frames\Vid27_L.png,['l'],1,[5.314993699998013],[None],3,1.7979904000094393,,,,,0,8,8,26,1781.5484657999987,,22,Male,Right handed,Normal,,,,,,,,,,,,,,,,,,,,,,,,,,,,,,,,,,,,,,,,1781.5393508000052,1781.5484657999987,1781.5484657999987,1781.5484657999987,1781.5484657999987,1781.5484657999987,1781.5484657999987,1786.8658002000084,['l'],1,[5.314993699998013],[None],1786.8666903000048,1786.880258600002,1786.880258600002,1786.880258600002,1788.6804158000086,3,1.7979904000094393,3,1.7979904000094393,,,,,,sub65_NB,001,2026-01-27_18h32.29.517,recognitionstage,,2025.1.1,59.9766331056066,2026-01-27 18h33.15.506833 +0530,
,,,9,9,0,7,frames\Vid7_EM_T.png,frames\Vid7_L.png,['r'],1,[29.876560500008054],[None],3,2.6798253000015393,,,,,0,9,9,6,1788.731080400008,,22,Male,Right handed,Normal,,,,,,,,,,,,,,,,,,,,,,,,,,,,,,,,,,,,,,,,1788.723785400005,1788.731080400008,1788.731080400008,1788.731080400008,1788.731080400008,1788.731080400008,1788.731080400008,1818.6164185000016,['r'],1,[29.876560500008054],[None],1818.6178886000052,1818.629980500009,1818.629980500009,1818.629980500009,1821.3142832000085,3,2.6798253000015393,3,2.6798253000015393,,,,,,sub65_NB,001,2026-01-27_18h32.29.517,recognitionstage,,2025.1.1,59.9766331056066,2026-01-27 18h33.15.506833 +0530,
,,,10,10,0,3,frames\Vid3_BB_T.png,frames\Vid3_L.png,['l'],1,[15.228545600009966],[None],2,2.166898299998138,,,,,0,10,10,2,1821.3792471999986,,22,Male,Right handed,Normal,,,,,,,,,,,,,,,,,,,,,,,,,,,,,,,,,,,,,,,,1821.3693561000036,1821.3792471999986,1821.3792471999986,1821.3792471999986,1821.3792471999986,1821.3792471999986,1821.3792471999986,1836.6142975000039,['l'],1,[15.228545600009966],[None],1836.6149165000024,1836.6305976000076,1836.6305976000076,1836.6305976000076,1838.7979462000003,2,2.166898299998138,2,2.166898299998138,,,,,,sub65_NB,001,2026-01-27_18h32.29.517,recognitionstage,,2025.1.1,59.9766331056066,2026-01-27 18h33.15.506833 +0530,
,,,11,11,0,9,frames\Vid9_EM_T.png,frames\Vid9_L.png,['l'],1,[7.3007125000003725],[None],2,2.748212600010447,,,,,0,11,11,8,1838.8507759999993,,22,Male,Right handed,Normal,,,,,,,,,,,,,,,,,,,,,,,,,,,,,,,,,,,,,,,,1838.835068399996,1838.8507759999993,1838.8507759999993,1838.8507759999993,1838.8507759999993,1838.8507759999993,1838.8507759999993,1846.1655437000081,['l'],1,[7.3007125000003725],[None],1846.1663884000081,1846.1802936000095,1846.1802936000095,1846.1802936000095,1848.9316523000089,2,2.748212600010447,2,2.748212600010447,,,,,,sub65_NB,001,2026-01-27_18h32.29.517,recognitionstage,,2025.1.1,59.9766331056066,2026-01-27 18h33.15.506833 +0530,
,,,12,12,0,35,frames\Vid35_EM_T.png,frames\Vid35_L.png,['r'],1,[35.1856958999997],[None],2,2.1657001999992644,,,,,0,12,12,34,1848.9659170000014,,22,Male,Right handed,Normal,,,,,,,,,,,,,,,,,,,,,,,,,,,,,,,,,,,,,,,,1848.941940800003,1848.9659170000014,1848.9659170000014,1848.9659170000014,1848.9659170000014,1848.9659170000014,1848.9659170000014,1884.16551910001,['r'],1,[35.1856958999997],[None],1884.1666301000005,1884.180362799998,1884.180362799998,1884.180362799998,1886.3478930000056,2,2.1657001999992644,2,2.1657001999992644,,,,,,sub65_NB,001,2026-01-27_18h32.29.517,recognitionstage,,2025.1.1,59.9766331056066,2026-01-27 18h33.15.506833 +0530,
,,,13,13,0,19,frames\Vid19_BB_T.png,frames\Vid19_L.png,['r'],1,[5.123376499992446],[None],4,2.663916799996514,,,,,0,13,13,18,1886.3802800000049,,22,Male,Right handed,Normal,,,,,,,,,,,,,,,,,,,,,,,,,,,,,,,,,,,,,,,,1886.3611246,1886.3802800000049,1886.3802800000049,1886.3802800000049,1886.3802800000049,1886.3802800000049,1886.3802800000049,1891.5157970000073,['r'],1,[5.123376499992446],[None],1891.5171591000035,1891.530522699999,1891.530522699999,1891.530522699999,1894.1981669000015,4,2.663916799996514,4,2.663916799996514,,,,,,sub65_NB,001,2026-01-27_18h32.29.517,recognitionstage,,2025.1.1,59.9766331056066,2026-01-27 18h33.15.506833 +0530,
,,,14,14,0,1,frames\Vid1_EM_T.png,frames\Vid1_L.png,['r'],0,[7.303544399997918],[None],2,2.1974608000018634,,,,,0,14,14,0,1894.2642315000048,,22,Male,Right handed,Normal,,,,,,,,,,,,,,,,,,,,,,,,,,,,,,,,,,,,,,,,1894.2485781000069,1894.2642315000048,1894.2642315000048,1894.2642315000048,1894.2642315000048,1894.2642315000048,1894.2642315000048,1901.5835819999993,['r'],0,[7.303544399997918],[None],1901.5849350999997,1901.5966537999993,1901.5966537999993,1901.5966537999993,1903.7976378000094,2,2.1974608000018634,2,2.1974608000018634,,,,,,sub65_NB,001,2026-01-27_18h32.29.517,recognitionstage,,2025.1.1,59.9766331056066,2026-01-27 18h33.15.506833 +0530,
,,,15,15,0,17,frames\Vid17_BB_T.png,frames\Vid17_L.png,['l'],1,[8.294808500009822],[None],3,2.6145374000043375,,,,,0,15,15,16,1903.8333874000018,,22,Male,Right handed,Normal,,,,,,,,,,,,,,,,,,,,,,,,,,,,,,,,,,,,,,,,1903.8239339000065,1903.8333874000018,1903.8333874000018,1903.8333874000018,1903.8333874000018,1903.8333874000018,1903.8333874000018,1912.1332619000095,['l'],1,[8.294808500009822],[None],1912.1340175000005,1912.146992700007,1912.146992700007,1912.146992700007,1914.7645361999967,3,2.6145374000043375,3,2.6145374000043375,,,,,,sub65_NB,001,2026-01-27_18h32.29.517,recognitionstage,,2025.1.1,59.9766331056066,2026-01-27 18h33.15.506833 +0530,
,,,16,16,0,36,frames\Vid36_BB_T.png,frames\Vid36_L.png,['r'],0,[18.88084960001288],[None],1,1.8309849000070244,,,,,0,16,16,35,1914.798708800001,,22,Male,Right handed,Normal,,,,,,,,,,,,,,,,,,,,,,,,,,,,,,,,,,,,,,,,1914.778502100009,1914.798708800001,1914.798708800001,1914.798708800001,1914.798708800001,1914.798708800001,1914.798708800001,1933.6827014000082,['r'],0,[18.88084960001288],[None],1933.6837304,1933.6967398000052,1933.6967398000052,1933.6967398000052,1935.531129700008,1,1.8309849000070244,1,1.8309849000070244,,,,,,sub65_NB,001,2026-01-27_18h32.29.517,recognitionstage,,2025.1.1,59.9766331056066,2026-01-27 18h33.15.506833 +0530,
,,,17,17,0,6,frames\Vid6_BB_T.png,frames\Vid6_L.png,['r'],1,[13.530152899998939],[None],4,2.264208399996278,,,,,0,17,17,5,1935.5975075999959,,22,Male,Right handed,Normal,,,,,,,,,,,,,,,,,,,,,,,,,,,,,,,,,,,,,,,,1935.5758864000018,1935.5975075999959,1935.5975075999959,1935.5975075999959,1935.5975075999959,1935.5975075999959,1935.5975075999959,1949.132482100009,['r'],1,[13.530152899998939],[None],1949.1335655000075,1949.162257099997,1949.162257099997,1949.162257099997,1951.4148447999978,4,2.264208399996278,4,2.264208399996278,,,,,,sub65_NB,001,2026-01-27_18h32.29.517,recognitionstage,,2025.1.1,59.9766331056066,2026-01-27 18h33.15.506833 +0530,
,,,18,18,0,20,frames\Vid20_EM_T.png,frames\Vid20_L.png,['l'],1,[7.005361999996239],[None],5,2.465986900002463,,,,,0,18,18,19,1951.4501814000032,,22,Male,Right handed,Normal,,,,,,,,,,,,,,,,,,,,,,,,,,,,,,,,,,,,,,,,1951.42557520001,1951.4501814000032,1951.4501814000032,1951.4501814000032,1951.4501814000032,1951.4501814000032,1951.4501814000032,1958.4659874999998,['l'],1,[7.005361999996239],[None],1958.4670097999988,1958.4802833000067,1958.4802833000067,1958.4802833000067,1960.947957999997,5,2.465986900002463,5,2.465986900002463,,,,,,sub65_NB,001,2026-01-27_18h32.29.517,recognitionstage,,2025.1.1,59.9766331056066,2026-01-27 18h33.15.506833 +0530,
,,,19,19,0,40,frames\Vid40_EM_T.png,frames\Vid40_L.png,['r'],1,[15.87415959998907],[None],3,1.9821414000034565,,,,,0,19,19,39,1960.9655060000005,,22,Male,Right handed,Normal,,,,,,,,,,,,,,,,,,,,,,,,,,,,,,,,,,,,,,,,1960.9557637000034,1960.9655060000005,1960.9655060000005,1960.9655060000005,1960.9655060000005,1960.9655060000005,1960.9655060000005,1976.8485779999974,['r'],1,[15.87415959998907],[None],1976.8494366000014,1976.8637226000064,1976.8637226000064,1976.8637226000064,1978.8473460000023,3,1.9821414000034565,3,1.9821414000034565,,,,,,sub65_NB,001,2026-01-27_18h32.29.517,recognitionstage,,2025.1.1,59.9766331056066,2026-01-27 18h33.15.506833 +0530,
,,,20,20,0,2,frames\Vid2_BB_T.png,frames\Vid2_L.png,['r'],0,[10.078787300008116],[None],4,3.0646252000005916,,,,,0,20,20,1,1978.8970897000036,,22,Male,Right handed,Normal,,,,,,,,,,,,,,,,,,,,,,,,,,,,,,,,,,,,,,,,1978.887259800009,1978.8970897000036,1978.8970897000036,1978.8970897000036,1978.8970897000036,1978.8970897000036,1978.8970897000036,1988.9829084000012,['r'],0,[10.078787300008116],[None],1988.983958100005,1988.9967875000075,1988.9967875000075,1988.9967875000075,1992.0639700999964,4,3.0646252000005916,4,3.0646252000005916,,,,,,sub65_NB,001,2026-01-27_18h32.29.517,recognitionstage,,2025.1.1,59.9766331056066,2026-01-27 18h33.15.506833 +0530,
,,,21,21,0,23,frames\Vid23_EM_T.png,frames\Vid23_L.png,['r'],1,[27.867887700005667],[None],1,2.664193199991132,,,,,0,21,21,22,1992.0998192000043,,22,Male,Right handed,Normal,,,,,,,,,,,,,,,,,,,,,,,,,,,,,,,,,,,,,,,,1992.0797042999984,1992.0998192000043,1992.0998192000043,1992.0998192000043,1992.0998192000043,1992.0998192000043,1992.0998192000043,2019.9829300000056,['r'],1,[27.867887700005667],[None],2019.9840403000053,2019.9967161000022,2019.9967161000022,2019.9967161000022,2022.6645678999994,1,2.664193199991132,1,2.664193199991132,,,,,,sub65_NB,001,2026-01-27_18h32.29.517,recognitionstage,,2025.1.1,59.9766331056066,2026-01-27 18h33.15.506833 +0530,
,,,22,22,0,4,frames\Vid4_EM_T.png,frames\Vid4_L.png,['r'],0,[5.100362400000449],[None],5,2.1157939999975497,,,,,0,22,22,3,2022.7313131000046,,22,Male,Right handed,Normal,,,,,,,,,,,,,,,,,,,,,,,,,,,,,,,,,,,,,,,,2022.7104982000092,2022.7313131000046,2022.7313131000046,2022.7313131000046,2022.7313131000046,2022.7313131000046,2022.7313131000046,2027.8322340000086,['r'],0,[5.100362400000449],[None],2027.8331865,2027.8472552999956,2027.8472552999956,2027.8472552999956,2029.964203100004,5,2.1157939999975497,5,2.1157939999975497,,,,,,sub65_NB,001,2026-01-27_18h32.29.517,recognitionstage,,2025.1.1,59.9766331056066,2026-01-27 18h33.15.506833 +0530,
,,,23,23,0,26,frames\Vid26_EM_T.png,frames\Vid26_L.png,['r'],1,[2.6321584999968763],[None],5,1.815665899994201,,,,,0,23,23,25,2029.9998749000006,,22,Male,Right handed,Normal,,,,,,,,,,,,,,,,,,,,,,,,,,,,,,,,,,,,,,,,2029.9781092999983,2029.9998749000006,2029.9998749000006,2029.9998749000006,2029.9998749000006,2029.9998749000006,2029.9998749000006,2032.6480729999967,['r'],1,[2.6321584999968763],[None],2032.6487620000044,2032.6635858000009,2032.6635858000009,2032.6635858000009,2034.4809588999997,5,1.815665899994201,5,1.815665899994201,,,,,,sub65_NB,001,2026-01-27_18h32.29.517,recognitionstage,,2025.1.1,59.9766331056066,2026-01-27 18h33.15.506833 +0530,
,,,24,24,0,5,frames\Vid5_EM_T.png,frames\Vid5_L.png,['r'],0,[9.155921800003853],[None],1,2.3138324999890756,,,,,0,24,24,4,2034.5317910000085,,22,Male,Right handed,Normal,,,,,,,,,,,,,,,,,,,,,,,,,,,,,,,,,,,,,,,,2034.5087679000062,2034.5317910000085,2034.5317910000085,2034.5317910000085,2034.5317910000085,2034.5317910000085,2034.5317910000085,2043.6994543999972,['r'],0,[9.155921800003853],[None],2043.7008776000075,2043.7137490999958,2043.7137490999958,2043.7137490999958,2046.0310370000007,1,2.3138324999890756,1,2.3138324999890756,,,,,,sub65_NB,001,2026-01-27_18h32.29.517,recognitionstage,,2025.1.1,59.9766331056066,2026-01-27 18h33.15.506833 +0530,
,,,25,25,0,8,frames\Vid8_BB_T.png,frames\Vid8_L.png,['r'],1,[7.260517100003199],[None],4,1.881861999994726,,,,,0,25,25,7,2046.083139900009,,22,Male,Right handed,Normal,,,,,,,,,,,,,,,,,,,,,,,,,,,,,,,,,,,,,,,,2046.069440500003,2046.083139900009,2046.083139900009,2046.083139900009,2046.083139900009,2046.083139900009,2046.083139900009,2053.348732000006,['r'],1,[7.260517100003199],[None],2053.3499079999965,2053.3637645000053,2053.3637645000053,2053.3637645000053,2055.2472377000013,4,1.881861999994726,4,1.881861999994726,,,,,,sub65_NB,001,2026-01-27_18h32.29.517,recognitionstage,,2025.1.1,59.9766331056066,2026-01-27 18h33.15.506833 +0530,
,,,26,26,0,33,frames\Vid33_BB_T.png,frames\Vid33_L.png,['l'],1,[5.563321999987238],[None],5,2.5643357999942964,,,,,0,26,26,32,2055.268305700003,,22,Male,Right handed,Normal,,,,,,,,,,,,,,,,,,,,,,,,,,,,,,,,,,,,,,,,2055.255947999998,2055.268305700003,2055.268305700003,2055.268305700003,2055.268305700003,2055.268305700003,2055.268305700003,2060.833373399997,['l'],1,[5.563321999987238],[None],2060.834465,2060.8466968000066,2060.8466968000066,2060.8466968000066,2063.414439399996,5,2.5643357999942964,5,2.5643357999942964,,,,,,sub65_NB,001,2026-01-27_18h32.29.517,recognitionstage,,2025.1.1,59.9766331056066,2026-01-27 18h33.15.506833 +0530,
,,,27,27,0,30,frames\Vid30_EM_T.png,frames\Vid30_L.png,['r'],1,[9.872365899995202],[None],5,2.681119899993064,,,,,0,27,27,29,2063.4471873000075,,22,Male,Right handed,Normal,,,,,,,,,,,,,,,,,,,,,,,,,,,,,,,,,,,,,,,,2063.4255895000024,2063.4471873000075,2063.4471873000075,2063.4471873000075,2063.4471873000075,2063.4471873000075,2063.4471873000075,2073.3330347000083,['r'],1,[9.872365899995202],[None],2073.3340076999957,2073.347300600006,2073.347300600006,2073.347300600006,2076.031723900007,5,2.681119899993064,5,2.681119899993064,,,,,,sub65_NB,001,2026-01-27_18h32.29.517,recognitionstage,,2025.1.1,59.9766331056066,2026-01-27 18h33.15.506833 +0530,
,,,28,28,0,12,frames\Vid12_EM_T.png,frames\Vid12_L.png,['l'],0,[16.598054700007197],[None],4,3.0820914000069024,,,,,0,28,28,11,2076.097678500002,,22,Male,Right handed,Normal,,,,,,,,,,,,,,,,,,,,,,,,,,,,,,,,,,,,,,,,2076.076884300004,2076.097678500002,2076.097678500002,2076.097678500002,2076.097678500002,2076.097678500002,2076.097678500002,2092.6988484999965,['l'],0,[16.598054700007197],[None],2092.699724600003,2092.7140475999986,2092.7140475999986,2092.7140475999986,2095.7973621000056,4,3.0820914000069024,4,3.0820914000069024,,,,,,sub65_NB,001,2026-01-27_18h32.29.517,recognitionstage,,2025.1.1,59.9766331056066,2026-01-27 18h33.15.506833 +0530,
,,,29,29,0,13,frames\Vid13_BB_T.png,frames\Vid13_L.png,['l'],0,[9.43701009999495],[None],2,2.280816700003925,,,,,0,29,29,12,2095.850631000001,,22,Male,Right handed,Normal,,,,,,,,,,,,,,,,,,,,,,,,,,,,,,,,,,,,,,,,2095.8323788000052,2095.850631000001,2095.850631000001,2095.850631000001,2095.850631000001,2095.850631000001,2095.850631000001,2105.299484299998,['l'],0,[9.43701009999495],[None],2105.300403699999,2105.313356100007,2105.313356100007,2105.313356100007,2107.597915600003,2,2.280816700003925,2,2.280816700003925,,,,,,sub65_NB,001,2026-01-27_18h32.29.517,recognitionstage,,2025.1.1,59.9766331056066,2026-01-27 18h33.15.506833 +0530,
,,,30,30,0,29,frames\Vid29_BB_T.png,frames\Vid29_L.png,['l'],1,[4.286869300005492],[None],5,1.8646600999927614,,,,,0,30,30,28,2107.632740599998,,22,Male,Right handed,Normal,,,,,,,,,,,,,,,,,,,,,,,,,,,,,,,,,,,,,,,,2107.6105742,2107.632740599998,2107.632740599998,2107.632740599998,2107.632740599998,2107.632740599998,2107.632740599998,2111.9324257000044,['l'],1,[4.286869300005492],[None],2111.9334578000053,2111.9471436999956,2111.9471436999956,2111.9471436999956,2113.8143836000017,5,1.8646600999927614,5,1.8646600999927614,,,,,,sub65_NB,001,2026-01-27_18h32.29.517,recognitionstage,,2025.1.1,59.9766331056066,2026-01-27 18h33.15.506833 +0530,
,,,31,31,0,18,frames\Vid18_EM_T.png,frames\Vid18_L.png,['l'],1,[4.912816900003236],[None],2,1.8983230000012554,,,,,0,31,31,17,2113.8468238999994,,22,Male,Right handed,Normal,,,,,,,,,,,,,,,,,,,,,,,,,,,,,,,,,,,,,,,,2113.8251356000037,2113.8468238999994,2113.8468238999994,2113.8468238999994,2113.8468238999994,2113.8468238999994,2113.8468238999994,2118.766156000005,['l'],1,[4.912816900003236],[None],2118.767249000004,2118.7800589000035,2118.7800589000035,2118.7800589000035,2120.680711700006,2,1.8983230000012554,2,1.8983230000012554,,,,,,sub65_NB,001,2026-01-27_18h32.29.517,recognitionstage,,2025.1.1,59.9766331056066,2026-01-27 18h33.15.506833 +0530,
,,,32,32,0,22,frames\Vid22_EM_T.png,frames\Vid22_L.png,['l'],0,[6.805800600006478],[None],3,1.71483110000554,,,,,0,32,32,21,2120.713747000009,,22,Male,Right handed,Normal,,,,,,,,,,,,,,,,,,,,,,,,,,,,,,,,,,,,,,,,2120.6944328000027,2120.713747000009,2120.713747000009,2120.713747000009,2120.713747000009,2120.713747000009,2120.713747000009,2127.5326008000047,['l'],0,[6.805800600006478],[None],2127.533573700006,2127.5468067999973,2127.5468067999973,2127.5468067999973,2129.2641801000063,3,1.71483110000554,3,1.71483110000554,,,,,,sub65_NB,001,2026-01-27_18h32.29.517,recognitionstage,,2025.1.1,59.9766331056066,2026-01-27 18h33.15.506833 +0530,
,,,33,33,0,16,frames\Vid16_EM_T.png,frames\Vid16_L.png,['l'],1,[23.78898150000896],[None],2,2.197721000004094,,,,,0,33,33,15,2129.3146695999967,,22,Male,Right handed,Normal,,,,,,,,,,,,,,,,,,,,,,,,,,,,,,,,,,,,,,,,2129.3016177000027,2129.3146695999967,2129.3146695999967,2129.3146695999967,2129.3146695999967,2129.3146695999967,2129.3146695999967,2153.115345799997,['l'],1,[23.78898150000896],[None],2153.1163858,2153.1304518000034,2153.1304518000034,2153.1304518000034,2155.331043799997,2,2.197721000004094,2,2.197721000004094,,,,,,sub65_NB,001,2026-01-27_18h32.29.517,recognitionstage,,2025.1.1,59.9766331056066,2026-01-27 18h33.15.506833 +0530,
,,,34,34,0,32,frames\Vid32_EM_T.png,frames\Vid32_L.png,['r'],1,[5.097225499994238],[None],5,2.58125519999885,,,,,0,34,34,31,2155.3663984000086,,22,Male,Right handed,Normal,,,,,,,,,,,,,,,,,,,,,,,,,,,,,,,,,,,,,,,,2155.3415440000026,2155.3663984000086,2155.3663984000086,2155.3663984000086,2155.3663984000086,2155.3663984000086,2155.3663984000086,2160.46593150001,['r'],1,[5.097225499994238],[None],2160.467265799998,2160.480384500006,2160.480384500006,2160.480384500006,2163.063866100005,5,2.58125519999885,5,2.58125519999885,,,,,,sub65_NB,001,2026-01-27_18h32.29.517,recognitionstage,,2025.1.1,59.9766331056066,2026-01-27 18h33.15.506833 +0530,
,,,35,35,0,11,frames\Vid11_EM_T.png,frames\Vid11_L.png,['r'],1,[3.613648700003978],[None],4,2.1638478000095347,,,,,0,35,35,10,2163.1142236000087,,22,Male,Right handed,Normal,,,,,,,,,,,,,,,,,,,,,,,,,,,,,,,,,,,,,,,,2163.105013500004,2163.1142236000087,2163.1142236000087,2163.1142236000087,2163.1142236000087,2163.1142236000087,2163.1142236000087,2166.7337444000077,['r'],1,[3.613648700003978],[None],2166.7349034,2166.746749100006,2166.746749100006,2166.746749100006,2168.913978100005,4,2.1638478000095347,4,2.1638478000095347,,,,,,sub65_NB,001,2026-01-27_18h32.29.517,recognitionstage,,2025.1.1,59.9766331056066,2026-01-27 18h33.15.506833 +0530,
,,,36,36,0,15,frames\Vid15_BB_T.png,frames\Vid15_L.png,['r'],0,[23.632406700009597],[None],3,2.0142508999997517,,,,,0,36,36,14,2168.9833341999984,,22,Male,Right handed,Normal,,,,,,,,,,,,,,,,,,,,,,,,,,,,,,,,,,,,,,,,2168.961692200006,2168.9833341999984,2168.9833341999984,2168.9833341999984,2168.9833341999984,2168.9833341999984,2168.9833341999984,2192.632756800005,['r'],0,[23.632406700009597],[None],2192.63394230001,2192.64712110001,2192.64712110001,2192.64712110001,2194.66426350001,3,2.0142508999997517,3,2.0142508999997517,,,,,,sub65_NB,001,2026-01-27_18h32.29.517,recognitionstage,,2025.1.1,59.9766331056066,2026-01-27 18h33.15.506833 +0530,
,,,37,37,0,10,frames\Vid10_BB_T.png,frames\Vid10_L.png,['r'],1,[4.178820299988729],[None],3,2.14765170001192,,,,,0,37,37,9,2194.716924900007,,22,Male,Right handed,Normal,,,,,,,,,,,,,,,,,,,,,,,,,,,,,,,,,,,,,,,,2194.7079281999977,2194.716924900007,2194.716924900007,2194.716924900007,2194.716924900007,2194.716924900007,2194.716924900007,2198.9001537000076,['r'],1,[4.178820299988729],[None],2198.901153999999,2198.9286362000057,2198.9286362000057,2198.9286362000057,2201.064288200003,3,2.14765170001192,3,2.14765170001192,,,,,,sub65_NB,001,2026-01-27_18h32.29.517,recognitionstage,,2025.1.1,59.9766331056066,2026-01-27 18h33.15.506833 +0530,
,,,38,38,0,14,frames\Vid14_BB_T.png,frames\Vid14_L.png,['r'],1,[19.00945079998928],[None],2,2.312747899995884,,,,,0,38,38,13,2201.1344615000053,,22,Male,Right handed,Normal,,,,,,,,,,,,,,,,,,,,,,,,,,,,,,,,,,,,,,,,2201.113761599998,2201.1344615000053,2201.1344615000053,2201.1344615000053,2201.1344615000053,2201.1344615000053,2201.1344615000053,2220.1506326000017,['r'],1,[19.00945079998928],[None],2220.1525639999963,2220.1783491000024,2220.1783491000024,2220.1783491000024,2222.480598800008,2,2.312747899995884,2,2.312747899995884,,,,,,sub65_NB,001,2026-01-27_18h32.29.517,recognitionstage,,2025.1.1,59.9766331056066,2026-01-27 18h33.15.506833 +0530,
,,,39,39,0,31,frames\Vid31_EM_T.png,frames\Vid31_L.png,['l'],1,[4.801978400006192],[None],4,1.8991438999946695,,,,,0,39,39,30,2222.501626400008,,22,Male,Right handed,Normal,,,,,,,,,,,,,,,,,,,,,,,,,,,,,,,,,,,,,,,,2222.4901948999977,2222.501626400008,2222.501626400008,2222.501626400008,2222.501626400008,2222.501626400008,2222.501626400008,2227.315359699998,['l'],1,[4.801978400006192],[None],2227.3163697000055,2227.345720000005,2227.345720000005,2227.345720000005,2229.2318148999984,4,1.8991438999946695,4,1.8991438999946695,,,,,,sub65_NB,001,2026-01-27_18h32.29.517,recognitionstage,,2025.1.1,59.9766331056066,2026-01-27 18h33.15.506833 +0530,
,,,,,,,,,,,,,,,,,,,,,,,,,22,Male,Right handed,Normal,,,,,,,,,,,,,,,,,,,,,,,,,,,,,,,,,,,,,,,,,,,,,,,,,,,,,,,,,,,,,2229.2319399000044,2229.2474426000044,2229.2474426000044,2249.2332072000063,None,sub65_NB,001,2026-01-27_18h32.29.517,recognitionstage,,2025.1.1,59.9766331056066,2026-01-27 18h33.15.506833 +0530,
