path,duration,is_repeat,thisN,thisTrialN,thisRepN,movie_id,target_img,lure_img,resp.keys,resp.corr,resp.rt,resp.duration,conf_radio.response,conf_radio.rt,movie.thisRepN,movie.thisTrialN,movie.thisN,movie.thisIndex,recogloop.thisRepN,recogloop.thisTrialN,recogloop.thisN,recogloop.thisIndex,thisRow.t,notes,age,gender,handedness,vision,caffeine_2h,alcohol_smoke_12h,demographics.started,demographics.stopped,Instructions.started,text1.started,key_resp.started,Instructions.stopped,key_resp.keys,key_resp.rt,key_resp.duration,instruction_2.started,text2.started,key_resp_2.started,instruction_2.stopped,key_resp_2.keys,key_resp_2.rt,key_resp_2.duration,Videos.started,movie_2.started,vigilance_resp.started,movie_2.stopped,Videos.stopped,movie.vigilance_resp.keys,vigilance_pressed,vigilance_correct,ISI.started,text.started,ISI.stopped,text.stopped,movie.vigilance_resp.rt,movie.vigilance_resp.duration,recognition.started,text_4.started,key_resp_3.started,recognition.stopped,key_resp_3.keys,key_resp_3.rt,key_resp_3.duration,recognition_task.started,leftimage.started,rightimage.started,resp.started,frames_question.started,right_label.started,left_label.started,recognition_task.stopped,recogloop.resp.keys,recogloop.resp.corr,recogloop.resp.rt,recogloop.resp.duration,confidence.started,conf_text.started,conf_radio.started,conf_label.started,confidence.stopped,recogloop.conf_radio.response,recogloop.conf_radio.rt,confidence,confidence_rt,thank_you.started,text_6.started,key_resp_4.started,thank_you.stopped,key_resp_4.keys,key_resp_4.rt,key_resp_4.duration,participant,session,date,expName,expVersion,psychopyVersion,frameRate,expStart,...105
,,,,,,,,,,,,,,,,,,,,,,,,,22,Female,Right handed,Corrected to normal,Caffeine consumed in last 2 hours?,Alcohol or smoking in last 12 hours?,0.010780600016005337,0.0769892999669537,,,,,,,,,,,,,,,,,,,,,,,,,,,,,,,,,,,,,,,,,,,,,,,,,,,,,,,,,,,,,,,,sub58_NB,001,2026-01-26_19h43.53.795,recognitionstage,,2025.1.1,60.02346917347377,2026-01-26 19h45.28.267297 +0530,
,,,,,,,,,,,,,,,,,,,,,,,,,22,Female,Right handed,Corrected to normal,,,,,0.07701689994428307,0.09448989992961287,0.09448989992961287,12.030777900014073,space,11.922523699933663,None,,,,,,,,,,,,,,,,,,,,,,,,,,,,,,,,,,,,,,,,,,,,,,,,,,,,,,,,,sub58_NB,001,2026-01-26_19h43.53.795,recognitionstage,,2025.1.1,60.02346917347377,2026-01-26 19h45.28.267297 +0530,
,,,,,,,,,,,,,,,,,,,,,,,,,22,Female,Right handed,Corrected to normal,,,,,,,,,,,,12.030832499964163,12.047715799999423,12.047715799999423,22.88096380000934,space,10.825278699980117,None,,,,,,,,,,,,,,,,,,,,,,,,,,,,,,,,,,,,,,,,,,,,,,,,,,sub58_NB,001,2026-01-26_19h43.53.795,recognitionstage,,2025.1.1,60.02346917347377,2026-01-26 19h45.28.267297 +0530,
Trimmed_videos/natural_28.mp4,48,1,44,44,0,,,,,,,,,,0,44,44,30,,,,,1561.7792907999828,,22,Female,Right handed,Corrected to normal,,,,,,,,,,,,,,,,,,,1561.735924000037,1561.7792907999828,1561.7792907999828,1558.5122046000324,1563.481396600022,space,1,1,1563.6029328999575,1563.6116683,1566.0987506000092,1566.114417099976,1.6859434000216424,None,1566.0988290000241,1566.114417099976,1566.114417099976,1591.0984156000195,space,24.982848200015724,None,,,,,,,,,,,,,,,,,,,,,,,,,,,,,sub58_NB,001,2026-01-26_19h43.53.795,recognitionstage,,2025.1.1,60.02346917347377,2026-01-26 19h45.28.267297 +0530,
,,,0,0,0,37,frames\Vid37_BB_T.png,frames\Vid37_L.png,['l'],1,[3.9604204000206664],[None],5,9.515667999978177,,,,,0,0,0,36,1591.1446848999476,,22,Female,Right handed,Corrected to normal,,,,,,,,,,,,,,,,,,,,,,,,,,,,,,,,,,,,,,,,1591.1316129999468,1591.1446848999476,1591.1446848999476,1591.1446848999476,1591.1446848999476,1591.1446848999476,1591.1446848999476,1595.114595299936,['l'],1,[3.9604204000206664],[None],1595.1154070999473,1595.1299420000287,1595.1299420000287,1595.1299420000287,1604.6468890999677,5,9.515667999978177,5,9.515667999978177,,,,,,,,sub58_NB,001,2026-01-26_19h43.53.795,recognitionstage,,2025.1.1,60.02346917347377,2026-01-26 19h45.28.267297 +0530,
,,,1,1,0,23,frames\Vid23_EM_T.png,frames\Vid23_L.png,['r'],1,[4.498241199995391],[None],5,1.6139837000519037,,,,,0,1,1,22,1604.6951821999392,,22,Female,Right handed,Corrected to normal,,,,,,,,,,,,,,,,,,,,,,,,,,,,,,,,,,,,,,,,1604.6831275000004,1604.6951821999392,1604.6951821999392,1604.6951821999392,1604.6951821999392,1604.6951821999392,1604.6951821999392,1609.1992523999652,['r'],1,[4.498241199995391],[None],1609.2003295000177,1609.2133363999892,1609.2133363999892,1609.2133363999892,1610.8300022999756,5,1.6139837000519037,5,1.6139837000519037,,,,,,,,sub58_NB,001,2026-01-26_19h43.53.795,recognitionstage,,2025.1.1,60.02346917347377,2026-01-26 19h45.28.267297 +0530,
,,,2,2,0,8,frames\Vid8_BB_T.png,frames\Vid8_L.png,['l'],1,[6.663922899984755],[None],4,1.0816591000184417,,,,,0,2,2,7,1610.897451799945,,22,Female,Right handed,Corrected to normal,,,,,,,,,,,,,,,,,,,,,,,,,,,,,,,,,,,,,,,,1610.8888988000108,1610.897451799945,1610.897451799945,1610.897451799945,1610.897451799945,1610.897451799945,1610.897451799945,1617.565694399993,['l'],1,[6.663922899984755],[None],1617.5668675999623,1617.579895999981,1617.579895999981,1617.579895999981,1618.6633128999965,4,1.0816591000184417,4,1.0816591000184417,,,,,,,,sub58_NB,001,2026-01-26_19h43.53.795,recognitionstage,,2025.1.1,60.02346917347377,2026-01-26 19h45.28.267297 +0530,
,,,3,3,0,12,frames\Vid12_EM_T.png,frames\Vid12_L.png,['l'],1,[4.08719160000328],[None],5,1.1980998000362888,,,,,0,3,3,11,1618.7620886999648,,22,Female,Right handed,Corrected to normal,,,,,,,,,,,,,,,,,,,,,,,,,,,,,,,,,,,,,,,,1618.7512203999795,1618.7620886999648,1618.7620886999648,1618.7620886999648,1618.7620886999648,1618.7620886999648,1618.7620886999648,1622.8645267999964,['l'],1,[4.08719160000328],[None],1622.8653183999704,1622.8801285999361,1622.8801285999361,1622.8801285999361,1624.0803644999396,5,1.1980998000362888,5,1.1980998000362888,,,,,,,,sub58_NB,001,2026-01-26_19h43.53.795,recognitionstage,,2025.1.1,60.02346917347377,2026-01-26 19h45.28.267297 +0530,
,,,4,4,0,38,frames\Vid38_EM_T.png,frames\Vid38_L.png,['r'],1,[3.9977308999514207],[None],5,1.0324743000091985,,,,,0,4,4,37,1624.1153872000286,,22,Female,Right handed,Corrected to normal,,,,,,,,,,,,,,,,,,,,,,,,,,,,,,,,,,,,,,,,1624.104369299952,1624.1153872000286,1624.1153872000286,1624.1153872000286,1624.1153872000286,1624.1153872000286,1624.1153872000286,1628.114558100002,['r'],1,[3.9977308999514207],[None],1628.1152430999791,1628.12981329998,1628.12981329998,1628.12981329998,1629.164943199954,5,1.0324743000091985,5,1.0324743000091985,,,,,,,,sub58_NB,001,2026-01-26_19h43.53.795,recognitionstage,,2025.1.1,60.02346917347377,2026-01-26 19h45.28.267297 +0530,
,,,5,5,0,22,frames\Vid22_EM_T.png,frames\Vid22_L.png,['l'],1,[9.07619200006593],[None],5,1.047428899910301,,,,,0,5,5,21,1629.2129652999574,,22,Female,Right handed,Corrected to normal,,,,,,,,,,,,,,,,,,,,,,,,,,,,,,,,,,,,,,,,1629.1931287000189,1629.2129652999574,1629.2129652999574,1629.2129652999574,1629.2129652999574,1629.2129652999574,1629.2129652999574,1638.2985144000268,['l'],1,[9.07619200006593],[None],1638.299608399975,1638.3129457000177,1638.3129457000177,1638.3129457000177,1639.3636815999635,5,1.047428899910301,5,1.047428899910301,,,,,,,,sub58_NB,001,2026-01-26_19h43.53.795,recognitionstage,,2025.1.1,60.02346917347377,2026-01-26 19h45.28.267297 +0530,
,,,6,6,0,29,frames\Vid29_BB_T.png,frames\Vid29_L.png,['l'],1,[4.948923800024204],[None],5,0.9642534999875352,,,,,0,6,6,28,1639.3965451000258,,22,Female,Right handed,Corrected to normal,,,,,,,,,,,,,,,,,,,,,,,,,,,,,,,,,,,,,,,,1639.3891208999557,1639.3965451000258,1639.3965451000258,1639.3965451000258,1639.3965451000258,1639.3965451000258,1639.3965451000258,1644.3488614999224,['l'],1,[4.948923800024204],[None],1644.3498287999537,1644.3636308999266,1644.3636308999266,1644.3636308999266,1645.3306333000073,5,0.9642534999875352,5,0.9642534999875352,,,,,,,,sub58_NB,001,2026-01-26_19h43.53.795,recognitionstage,,2025.1.1,60.02346917347377,2026-01-26 19h45.28.267297 +0530,
,,,7,7,0,30,frames\Vid30_EM_T.png,frames\Vid30_L.png,['l'],1,[3.7582486999453977],[None],5,2.732382000074722,,,,,0,7,7,29,1645.3628875999711,,22,Female,Right handed,Corrected to normal,,,,,,,,,,,,,,,,,,,,,,,,,,,,,,,,,,,,,,,,1645.354765499942,1645.3628875999711,1645.3628875999711,1645.3628875999711,1645.3628875999711,1645.3628875999711,1645.3628875999711,1649.1309738999698,['l'],1,[3.7582486999453977],[None],1649.1318308999762,1649.147092500003,1649.147092500003,1649.147092500003,1651.8809220999246,5,2.732382000074722,5,2.732382000074722,,,,,,,,sub58_NB,001,2026-01-26_19h43.53.795,recognitionstage,,2025.1.1,60.02346917347377,2026-01-26 19h45.28.267297 +0530,
,,,8,8,0,24,frames\Vid24_BB_T.png,frames\Vid24_L.png,['l'],1,[7.832039300003089],[None],5,2.6147005000384524,,,,,0,8,8,23,1651.9295088000363,,22,Female,Right handed,Corrected to normal,,,,,,,,,,,,,,,,,,,,,,,,,,,,,,,,,,,,,,,,1651.9080759999342,1651.9295088000363,1651.9295088000363,1651.9295088000363,1651.9295088000363,1651.9295088000363,1651.9295088000363,1659.7650023000315,['l'],1,[7.832039300003089],[None],1659.7660597999347,1659.7797303999541,1659.7797303999541,1659.7797303999541,1662.397160399938,5,2.6147005000384524,5,2.6147005000384524,,,,,,,,sub58_NB,001,2026-01-26_19h43.53.795,recognitionstage,,2025.1.1,60.02346917347377,2026-01-26 19h45.28.267297 +0530,
,,,9,9,0,20,frames\Vid20_EM_T.png,frames\Vid20_L.png,['r'],0,[24.339545599999838],[None],2,4.163784199976362,,,,,0,9,9,19,1662.429771099938,,22,Female,Right handed,Corrected to normal,,,,,,,,,,,,,,,,,,,,,,,,,,,,,,,,,,,,,,,,1662.4175957000116,1662.429771099938,1662.429771099938,1662.429771099938,1662.429771099938,1662.429771099938,1662.429771099938,1686.7821880999254,['r'],0,[24.339545599999838],[None],1686.7834412999218,1686.796044699964,1686.796044699964,1686.796044699964,1690.9644055999815,2,4.163784199976362,2,4.163784199976362,,,,,,,,sub58_NB,001,2026-01-26_19h43.53.795,recognitionstage,,2025.1.1,60.02346917347377,2026-01-26 19h45.28.267297 +0530,
,,,10,10,0,6,frames\Vid6_BB_T.png,frames\Vid6_L.png,['l'],1,[2.914370800019242],[None],5,1.5145170000614598,,,,,0,10,10,5,1691.0467988000019,,22,Female,Right handed,Corrected to normal,,,,,,,,,,,,,,,,,,,,,,,,,,,,,,,,,,,,,,,,1691.0248743999982,1691.0467988000019,1691.0467988000019,1691.0467988000019,1691.0467988000019,1691.0467988000019,1691.0467988000019,1693.9650814000051,['l'],1,[2.914370800019242],[None],1693.965982099995,1693.979372599977,1693.979372599977,1693.979372599977,1695.4979807999916,5,1.5145170000614598,5,1.5145170000614598,,,,,,,,sub58_NB,001,2026-01-26_19h43.53.795,recognitionstage,,2025.1.1,60.02346917347377,2026-01-26 19h45.28.267297 +0530,
,,,11,11,0,27,frames\Vid27_BB_T.png,frames\Vid27_L.png,['r'],1,[3.164278900017962],[None],5,1.1998744000447914,,,,,0,11,11,26,1695.532805099967,,22,Female,Right handed,Corrected to normal,,,,,,,,,,,,,,,,,,,,,,,,,,,,,,,,,,,,,,,,1695.5229937999975,1695.532805099967,1695.532805099967,1695.532805099967,1695.532805099967,1695.532805099967,1695.532805099967,1698.7139194000047,['r'],1,[3.164278900017962],[None],1698.7144193999702,1698.7293752999976,1698.7293752999976,1698.7293752999976,1699.9299562999513,5,1.1998744000447914,5,1.1998744000447914,,,,,,,,sub58_NB,001,2026-01-26_19h43.53.795,recognitionstage,,2025.1.1,60.02346917347377,2026-01-26 19h45.28.267297 +0530,
,,,12,12,0,34,frames\Vid34_BB_T.png,frames\Vid34_L.png,['r'],1,[14.11856259999331],[None],3,2.2967015000758693,,,,,0,12,12,33,1699.9627116000047,,22,Female,Right handed,Corrected to normal,,,,,,,,,,,,,,,,,,,,,,,,,,,,,,,,,,,,,,,,1699.9529440000188,1699.9627116000047,1699.9627116000047,1699.9627116000047,1699.9627116000047,1699.9627116000047,1699.9627116000047,1714.0830604999792,['r'],1,[14.11856259999331],[None],1714.0842422000133,1714.111591599998,1714.111591599998,1714.111591599998,1716.3976781999227,3,2.2967015000758693,3,2.2967015000758693,,,,,,,,sub58_NB,001,2026-01-26_19h43.53.795,recognitionstage,,2025.1.1,60.02346917347377,2026-01-26 19h45.28.267297 +0530,
,,,13,13,0,5,frames\Vid5_EM_T.png,frames\Vid5_L.png,['r'],1,[2.2977333000162616],[None],5,2.0143253999995068,,,,,0,13,13,4,1716.4635855000233,,22,Female,Right handed,Corrected to normal,,,,,,,,,,,,,,,,,,,,,,,,,,,,,,,,,,,,,,,,1716.443043999956,1716.4635855000233,1716.4635855000233,1716.4635855000233,1716.4635855000233,1716.4635855000233,1716.4635855000233,1718.7657446999801,['r'],1,[2.2977333000162616],[None],1718.7667567000026,1718.7803006999893,1718.7803006999893,1718.7803006999893,1720.7969903999474,5,2.0143253999995068,5,2.0143253999995068,,,,,,,,sub58_NB,001,2026-01-26_19h43.53.795,recognitionstage,,2025.1.1,60.02346917347377,2026-01-26 19h45.28.267297 +0530,
,,,14,14,0,39,frames\Vid39_BB_T.png,frames\Vid39_L.png,['r'],1,[4.8656803000485525],[None],5,1.6313735999865457,,,,,0,14,14,38,1720.8314901000122,,22,Female,Right handed,Corrected to normal,,,,,,,,,,,,,,,,,,,,,,,,,,,,,,,,,,,,,,,,1720.8193923999788,1720.8314901000122,1720.8314901000122,1720.8314901000122,1720.8314901000122,1720.8314901000122,1720.8314901000122,1725.6980592999607,['r'],1,[4.8656803000485525],[None],1725.6992222999688,1725.7134481000248,1725.7134481000248,1725.7134481000248,1727.347409299924,5,1.6313735999865457,5,1.6313735999865457,,,,,,,,sub58_NB,001,2026-01-26_19h43.53.795,recognitionstage,,2025.1.1,60.02346917347377,2026-01-26 19h45.28.267297 +0530,
,,,15,15,0,10,frames\Vid10_BB_T.png,frames\Vid10_L.png,['r'],1,[11.139731300063431],[None],3,1.0799950000364333,,,,,0,15,15,9,1727.4136121999472,,22,Female,Right handed,Corrected to normal,,,,,,,,,,,,,,,,,,,,,,,,,,,,,,,,,,,,,,,,1727.405553599936,1727.4136121999472,1727.4136121999472,1727.4136121999472,1727.4136121999472,1727.4136121999472,1727.4136121999472,1738.5665377000114,['r'],1,[11.139731300063431],[None],1738.5678545000264,1738.5795030000154,1738.5795030000154,1738.5795030000154,1739.6640486000106,3,1.0799950000364333,3,1.0799950000364333,,,,,,,,sub58_NB,001,2026-01-26_19h43.53.795,recognitionstage,,2025.1.1,60.02346917347377,2026-01-26 19h45.28.267297 +0530,
,,,16,16,0,17,frames\Vid17_BB_T.png,frames\Vid17_L.png,['r'],1,[7.117051100009121],[None],5,3.812660100054927,,,,,0,16,16,16,1739.716464499943,,22,Female,Right handed,Corrected to normal,,,,,,,,,,,,,,,,,,,,,,,,,,,,,,,,,,,,,,,,1739.7071391999489,1739.716464499943,1739.716464499943,1739.716464499943,1739.716464499943,1739.716464499943,1739.716464499943,1746.849588299985,['r'],1,[7.117051100009121],[None],1746.851516499999,1746.8778547999682,1746.8778547999682,1746.8778547999682,1750.6803536999505,5,3.812660100054927,5,3.812660100054927,,,,,,,,sub58_NB,001,2026-01-26_19h43.53.795,recognitionstage,,2025.1.1,60.02346917347377,2026-01-26 19h45.28.267297 +0530,
,,,17,17,0,31,frames\Vid31_EM_T.png,frames\Vid31_L.png,['r'],1,[2.3832131000235677],[None],5,1.730554400011897,,,,,0,17,17,30,1750.7140614999225,,22,Female,Right handed,Corrected to normal,,,,,,,,,,,,,,,,,,,,,,,,,,,,,,,,,,,,,,,,1750.7032726999605,1750.7140614999225,1750.7140614999225,1750.7140614999225,1750.7140614999225,1750.7140614999225,1750.7140614999225,1753.0991275999695,['r'],1,[2.3832131000235677],[None],1753.1002804000163,1753.1128045000369,1753.1128045000369,1753.1128045000369,1754.8466876000166,5,1.730554400011897,5,1.730554400011897,,,,,,,,sub58_NB,001,2026-01-26_19h43.53.795,recognitionstage,,2025.1.1,60.02346917347377,2026-01-26 19h45.28.267297 +0530,
,,,18,18,0,14,frames\Vid14_BB_T.png,frames\Vid14_L.png,['l'],1,[4.311635500052944],[None],5,0.6658582999370992,,,,,0,18,18,13,1754.9135783999227,,22,Female,Right handed,Corrected to normal,,,,,,,,,,,,,,,,,,,,,,,,,,,,,,,,,,,,,,,,1754.9060141999507,1754.9135783999227,1754.9135783999227,1754.9135783999227,1754.9135783999227,1754.9135783999227,1754.9135783999227,1759.231000400032,['l'],1,[4.311635500052944],[None],1759.232074599946,1759.2464072000002,1759.2464072000002,1759.2464072000002,1759.913524099975,5,0.6658582999370992,5,0.6658582999370992,,,,,,,,sub58_NB,001,2026-01-26_19h43.53.795,recognitionstage,,2025.1.1,60.02346917347377,2026-01-26 19h45.28.267297 +0530,
,,,19,19,0,21,frames\Vid21_BB_T.png,frames\Vid21_L.png,['r'],1,[7.363608799991198],[None],5,0.682487600017339,,,,,0,19,19,20,1759.9654719999526,,22,Female,Right handed,Corrected to normal,,,,,,,,,,,,,,,,,,,,,,,,,,,,,,,,,,,,,,,,1759.9406582999509,1759.9654719999526,1759.9654719999526,1759.9654719999526,1759.9654719999526,1759.9654719999526,1759.9654719999526,1767.331087199971,['r'],1,[7.363608799991198],[None],1767.3319070999278,1767.3465463999892,1767.3465463999892,1767.3465463999892,1768.0306434000377,5,0.682487600017339,5,0.682487600017339,,,,,,,,sub58_NB,001,2026-01-26_19h43.53.795,recognitionstage,,2025.1.1,60.02346917347377,2026-01-26 19h45.28.267297 +0530,
,,,20,20,0,2,frames\Vid2_BB_T.png,frames\Vid2_L.png,['r'],1,[5.352209899923764],[None],5,2.0823873999761418,,,,,0,20,20,1,1768.097140399972,,22,Female,Right handed,Corrected to normal,,,,,,,,,,,,,,,,,,,,,,,,,,,,,,,,,,,,,,,,1768.0852991000284,1768.097140399972,1768.097140399972,1768.097140399972,1768.097140399972,1768.097140399972,1768.097140399972,1773.4646702000173,['r'],1,[5.352209899923764],[None],1773.4655783999478,1773.4799309000373,1773.4799309000373,1773.4799309000373,1775.564050499932,5,2.0823873999761418,5,2.0823873999761418,,,,,,,,sub58_NB,001,2026-01-26_19h43.53.795,recognitionstage,,2025.1.1,60.02346917347377,2026-01-26 19h45.28.267297 +0530,
,,,21,21,0,32,frames\Vid32_EM_T.png,frames\Vid32_L.png,['r'],1,[2.40113090001978],[None],5,0.9656398999504745,,,,,0,21,21,31,1775.6160076999804,,22,Female,Right handed,Corrected to normal,,,,,,,,,,,,,,,,,,,,,,,,,,,,,,,,,,,,,,,,1775.591540699941,1775.6160076999804,1775.6160076999804,1775.6160076999804,1775.6160076999804,1775.6160076999804,1775.6160076999804,1778.0315030999482,['r'],1,[2.40113090001978],[None],1778.0322312000208,1778.0460981000215,1778.0460981000215,1778.0460981000215,1779.0138042999897,5,0.9656398999504745,5,0.9656398999504745,,,,,,,,sub58_NB,001,2026-01-26_19h43.53.795,recognitionstage,,2025.1.1,60.02346917347377,2026-01-26 19h45.28.267297 +0530,
,,,22,22,0,36,frames\Vid36_BB_T.png,frames\Vid36_L.png,['r'],1,[3.273707199958153],[None],5,1.0976279999595135,,,,,0,22,22,35,1779.063493099995,,22,Female,Right handed,Corrected to normal,,,,,,,,,,,,,,,,,,,,,,,,,,,,,,,,,,,,,,,,1779.0434105999302,1779.063493099995,1779.063493099995,1779.063493099995,1779.063493099995,1779.063493099995,1779.063493099995,1782.3486045999452,['r'],1,[3.273707199958153],[None],1782.3497508999426,1782.3627003999427,1782.3627003999427,1782.3627003999427,1783.463651799946,5,1.0976279999595135,5,1.0976279999595135,,,,,,,,sub58_NB,001,2026-01-26_19h43.53.795,recognitionstage,,2025.1.1,60.02346917347377,2026-01-26 19h45.28.267297 +0530,
,,,23,23,0,25,frames\Vid25_BB_T.png,frames\Vid25_L.png,['l'],1,[7.184763099998236],[None],5,0.54798400006257,,,,,0,23,23,24,1783.4965573999798,,22,Female,Right handed,Corrected to normal,,,,,,,,,,,,,,,,,,,,,,,,,,,,,,,,,,,,,,,,1783.4891694999533,1783.4965573999798,1783.4965573999798,1783.4965573999798,1783.4965573999798,1783.4965573999798,1783.4965573999798,1790.681855199975,['l'],1,[7.184763099998236],[None],1790.682674999931,1790.6960355000338,1790.6960355000338,1790.6960355000338,1791.2475608999375,5,0.54798400006257,5,0.54798400006257,,,,,,,,sub58_NB,001,2026-01-26_19h43.53.795,recognitionstage,,2025.1.1,60.02346917347377,2026-01-26 19h45.28.267297 +0530,
,,,24,24,0,15,frames\Vid15_BB_T.png,frames\Vid15_L.png,['l'],0,[6.151318900054321],[None],5,0.5148155998904258,,,,,0,24,24,14,1791.330006700009,,22,Female,Right handed,Corrected to normal,,,,,,,,,,,,,,,,,,,,,,,,,,,,,,,,,,,,,,,,1791.3123009999981,1791.330006700009,1791.330006700009,1791.330006700009,1791.330006700009,1791.330006700009,1791.330006700009,1797.4984008999309,['l'],0,[6.151318900054321],[None],1797.4995380999753,1797.513209800003,1797.513209800003,1797.513209800003,1798.0305462999968,5,0.5148155998904258,5,0.5148155998904258,,,,,,,,sub58_NB,001,2026-01-26_19h43.53.795,recognitionstage,,2025.1.1,60.02346917347377,2026-01-26 19h45.28.267297 +0530,
,,,25,25,0,26,frames\Vid26_EM_T.png,frames\Vid26_L.png,['l'],1,[5.846697999979369],[None],4,0.9989327000221238,,,,,0,25,25,25,1798.082349400036,,22,Female,Right handed,Corrected to normal,,,,,,,,,,,,,,,,,,,,,,,,,,,,,,,,,,,,,,,,1798.0626331999665,1798.082349400036,1798.082349400036,1798.082349400036,1798.082349400036,1798.082349400036,1798.082349400036,1803.9314472000115,['l'],1,[5.846697999979369],[None],1803.9322723000078,1803.9459350999678,1803.9459350999678,1803.9459350999678,1804.9470969999675,4,0.9989327000221238,4,0.9989327000221238,,,,,,,,sub58_NB,001,2026-01-26_19h43.53.795,recognitionstage,,2025.1.1,60.02346917347377,2026-01-26 19h45.28.267297 +0530,
,,,26,26,0,1,frames\Vid1_EM_T.png,frames\Vid1_L.png,['r'],1,[8.92270210001152],[None],4,1.3485388000262901,,,,,0,26,26,0,1805.0304780999431,,22,Female,Right handed,Corrected to normal,,,,,,,,,,,,,,,,,,,,,,,,,,,,,,,,,,,,,,,,1805.0117552999873,1805.0304780999431,1805.0304780999431,1805.0304780999431,1805.0304780999431,1805.0304780999431,1805.0304780999431,1813.9646412000293,['r'],1,[8.92270210001152],[None],1813.9654903999763,1813.9797829999588,1813.9797829999588,1813.9797829999588,1815.3299442999996,4,1.3485388000262901,4,1.3485388000262901,,,,,,,,sub58_NB,001,2026-01-26_19h43.53.795,recognitionstage,,2025.1.1,60.02346917347377,2026-01-26 19h45.28.267297 +0530,
,,,27,27,0,40,frames\Vid40_EM_T.png,frames\Vid40_L.png,['l'],1,[6.419434800045565],[None],5,0.9144074999494478,,,,,0,27,27,39,1815.365704900003,,22,Female,Right handed,Corrected to normal,,,,,,,,,,,,,,,,,,,,,,,,,,,,,,,,,,,,,,,,1815.3516663999762,1815.365704900003,1815.365704900003,1815.365704900003,1815.365704900003,1815.365704900003,1815.365704900003,1821.7985059999628,['l'],1,[6.419434800045565],[None],1821.7996687999694,1821.8131845999742,1821.8131845999742,1821.8131845999742,1822.730545599945,5,0.9144074999494478,5,0.9144074999494478,,,,,,,,sub58_NB,001,2026-01-26_19h43.53.795,recognitionstage,,2025.1.1,60.02346917347377,2026-01-26 19h45.28.267297 +0530,
,,,28,28,0,35,frames\Vid35_EM_T.png,frames\Vid35_L.png,['r'],1,[4.486690900055692],[None],5,2.198460099985823,,,,,0,28,28,34,1822.7625977999996,,22,Female,Right handed,Corrected to normal,,,,,,,,,,,,,,,,,,,,,,,,,,,,,,,,,,,,,,,,1822.7519956999458,1822.7625977999996,1822.7625977999996,1822.7625977999996,1822.7625977999996,1822.7625977999996,1822.7625977999996,1827.2644420999568,['r'],1,[4.486690900055692],[None],1827.2651236000238,1827.279758599936,1827.279758599936,1827.279758599936,1829.4804029000225,5,2.198460099985823,5,2.198460099985823,,,,,,,,sub58_NB,001,2026-01-26_19h43.53.795,recognitionstage,,2025.1.1,60.02346917347377,2026-01-26 19h45.28.267297 +0530,
,,,29,29,0,4,frames\Vid4_EM_T.png,frames\Vid4_L.png,['r'],1,[8.086479700054042],[None],4,1.3985399000812322,,,,,0,29,29,3,1829.546664500027,,22,Female,Right handed,Corrected to normal,,,,,,,,,,,,,,,,,,,,,,,,,,,,,,,,,,,,,,,,1829.5383129999973,1829.546664500027,1829.546664500027,1829.546664500027,1829.546664500027,1829.546664500027,1829.546664500027,1837.6483622000087,['r'],1,[8.086479700054042],[None],1837.649462900008,1837.6631383999484,1837.6631383999484,1837.6631383999484,1839.0644946999382,4,1.3985399000812322,4,1.3985399000812322,,,,,,,,sub58_NB,001,2026-01-26_19h43.53.795,recognitionstage,,2025.1.1,60.02346917347377,2026-01-26 19h45.28.267297 +0530,
,,,30,30,0,3,frames\Vid3_BB_T.png,frames\Vid3_L.png,['l'],1,[6.332262999960221],[None],5,0.7476051000412554,,,,,0,30,30,2,1839.1330012999242,,22,Female,Right handed,Corrected to normal,,,,,,,,,,,,,,,,,,,,,,,,,,,,,,,,,,,,,,,,1839.1184644999448,1839.1330012999242,1839.1330012999242,1839.1330012999242,1839.1330012999242,1839.1330012999242,1839.1330012999242,1845.4817600999959,['l'],1,[6.332262999960221],[None],1845.482826499967,1845.4960559000028,1845.4960559000028,1845.4960559000028,1846.2472852999344,5,0.7476051000412554,5,0.7476051000412554,,,,,,,,sub58_NB,001,2026-01-26_19h43.53.795,recognitionstage,,2025.1.1,60.02346917347377,2026-01-26 19h45.28.267297 +0530,
,,,31,31,0,7,frames\Vid7_EM_T.png,frames\Vid7_L.png,['l'],1,[3.5892085999948904],[None],5,0.9975819999817759,,,,,0,31,31,6,1846.3160512000322,,22,Female,Right handed,Corrected to normal,,,,,,,,,,,,,,,,,,,,,,,,,,,,,,,,,,,,,,,,1846.3051905999891,1846.3160512000322,1846.3160512000322,1846.3160512000322,1846.3160512000322,1846.3160512000322,1846.3160512000322,1849.915340699954,['l'],1,[3.5892085999948904],[None],1849.9164062000345,1849.9298190999543,1849.9298190999543,1849.9298190999543,1850.9309220999712,5,0.9975819999817759,5,0.9975819999817759,,,,,,,,sub58_NB,001,2026-01-26_19h43.53.795,recognitionstage,,2025.1.1,60.02346917347377,2026-01-26 19h45.28.267297 +0530,
,,,32,32,0,9,frames\Vid9_EM_T.png,frames\Vid9_L.png,['r'],1,[11.026021600002423],[None],4,1.4152479000622407,,,,,0,32,32,8,1850.9993273,,22,Female,Right handed,Corrected to normal,,,,,,,,,,,,,,,,,,,,,,,,,,,,,,,,,,,,,,,,1850.9816496999701,1850.9993273,1850.9993273,1850.9993273,1850.9993273,1850.9993273,1850.9993273,1862.031182799954,['r'],1,[11.026021600002423],[None],1862.0321065000026,1862.0464466999983,1862.0464466999983,1862.0464466999983,1863.4637519000098,4,1.4152479000622407,4,1.4152479000622407,,,,,,,,sub58_NB,001,2026-01-26_19h43.53.795,recognitionstage,,2025.1.1,60.02346917347377,2026-01-26 19h45.28.267297 +0530,
,,,33,33,0,19,frames\Vid19_BB_T.png,frames\Vid19_L.png,['r'],0,[14.66265050007496],[None],2,1.8655771999619901,,,,,0,33,33,18,1863.498461799929,,22,Female,Right handed,Corrected to normal,,,,,,,,,,,,,,,,,,,,,,,,,,,,,,,,,,,,,,,,1863.4888224999886,1863.498461799929,1863.498461799929,1863.498461799929,1863.498461799929,1863.498461799929,1863.498461799929,1878.1642818999244,['r'],0,[14.66265050007496],[None],1878.1649002999766,1878.179695299943,1878.179695299943,1878.179695299943,1880.0468435999937,2,1.8655771999619901,2,1.8655771999619901,,,,,,,,sub58_NB,001,2026-01-26_19h43.53.795,recognitionstage,,2025.1.1,60.02346917347377,2026-01-26 19h45.28.267297 +0530,
,,,34,34,0,16,frames\Vid16_EM_T.png,frames\Vid16_L.png,['l'],0,[6.079260500031523],[None],5,1.8806940000504255,,,,,0,34,34,15,1880.1140640999656,,22,Female,Right handed,Corrected to normal,,,,,,,,,,,,,,,,,,,,,,,,,,,,,,,,,,,,,,,,1880.102372399997,1880.1140640999656,1880.1140640999656,1880.1140640999656,1880.1140640999656,1880.1140640999656,1880.1140640999656,1886.1993098999374,['l'],0,[6.079260500031523],[None],1886.2004936999874,1886.2281238000141,1886.2281238000141,1886.2281238000141,1888.0965322999982,5,1.8806940000504255,5,1.8806940000504255,,,,,,,,sub58_NB,001,2026-01-26_19h43.53.795,recognitionstage,,2025.1.1,60.02346917347377,2026-01-26 19h45.28.267297 +0530,
,,,35,35,0,11,frames\Vid11_EM_T.png,frames\Vid11_L.png,['r'],1,[3.4509675999870524],[None],5,1.5975525999674574,,,,,0,35,35,10,1888.1662126999581,,22,Female,Right handed,Corrected to normal,,,,,,,,,,,,,,,,,,,,,,,,,,,,,,,,,,,,,,,,1888.1524989999598,1888.1662126999581,1888.1662126999581,1888.1662126999581,1888.1662126999581,1888.1662126999581,1888.1662126999581,1891.6315106999828,['r'],1,[3.4509675999870524],[None],1891.632811699994,1891.6464430999476,1891.6464430999476,1891.6464430999476,1893.2470803000033,5,1.5975525999674574,5,1.5975525999674574,,,,,,,,sub58_NB,001,2026-01-26_19h43.53.795,recognitionstage,,2025.1.1,60.02346917347377,2026-01-26 19h45.28.267297 +0530,
,,,36,36,0,13,frames\Vid13_BB_T.png,frames\Vid13_L.png,['l'],1,[10.413426400045864],[None],3,1.7653428999474272,,,,,0,36,36,12,1893.3158194000134,,22,Female,Right handed,Corrected to normal,,,,,,,,,,,,,,,,,,,,,,,,,,,,,,,,,,,,,,,,1893.2942132999888,1893.3158194000134,1893.3158194000134,1893.3158194000134,1893.3158194000134,1893.3158194000134,1893.3158194000134,1903.7318575999234,['l'],1,[10.413426400045864],[None],1903.7327406000113,1903.7460875000106,1903.7460875000106,1903.7460875000106,1905.5133456999902,3,1.7653428999474272,3,1.7653428999474272,,,,,,,,sub58_NB,001,2026-01-26_19h43.53.795,recognitionstage,,2025.1.1,60.02346917347377,2026-01-26 19h45.28.267297 +0530,
,,,37,37,0,18,frames\Vid18_EM_T.png,frames\Vid18_L.png,['r'],1,[4.25271689996589],[None],5,1.6643435000441968,,,,,0,37,37,17,1905.5485943999374,,22,Female,Right handed,Corrected to normal,,,,,,,,,,,,,,,,,,,,,,,,,,,,,,,,,,,,,,,,1905.5381864999654,1905.5485943999374,1905.5485943999374,1905.5485943999374,1905.5485943999374,1905.5485943999374,1905.5485943999374,1909.8149615000002,['r'],1,[4.25271689996589],[None],1909.8159578000195,1909.8302967000054,1909.8302967000054,1909.8302967000054,1911.4969185999362,5,1.6643435000441968,5,1.6643435000441968,,,,,,,,sub58_NB,001,2026-01-26_19h43.53.795,recognitionstage,,2025.1.1,60.02346917347377,2026-01-26 19h45.28.267297 +0530,
,,,38,38,0,28,frames\Vid28_EM_T.png,frames\Vid28_L.png,['r'],1,[5.567520400043577],[None],5,1.1151972999796271,,,,,0,38,38,27,1911.5297232000157,,22,Female,Right handed,Corrected to normal,,,,,,,,,,,,,,,,,,,,,,,,,,,,,,,,,,,,,,,,1911.5208386000013,1911.5297232000157,1911.5297232000157,1911.5297232000157,1911.5297232000157,1911.5297232000157,1911.5297232000157,1917.09799499996,['r'],1,[5.567520400043577],[None],1917.0989539999282,1917.1130783000262,1917.1130783000262,1917.1130783000262,1918.2299045999534,5,1.1151972999796271,5,1.1151972999796271,,,,,,,,sub58_NB,001,2026-01-26_19h43.53.795,recognitionstage,,2025.1.1,60.02346917347377,2026-01-26 19h45.28.267297 +0530,
,,,39,39,0,33,frames\Vid33_BB_T.png,frames\Vid33_L.png,['l'],1,[12.346399499918334],[None],5,0.6317544000921771,,,,,0,39,39,32,1918.2628429000033,,22,Female,Right handed,Corrected to normal,,,,,,,,,,,,,,,,,,,,,,,,,,,,,,,,,,,,,,,,1918.252990399953,1918.2628429000033,1918.2628429000033,1918.2628429000033,1918.2628429000033,1918.2628429000033,1918.2628429000033,1930.6150487000123,['l'],1,[12.346399499918334],[None],1930.6158534999704,1930.6294369000243,1930.6294369000243,1930.6294369000243,1931.263454800006,5,0.6317544000921771,5,0.6317544000921771,,,,,,,,sub58_NB,001,2026-01-26_19h43.53.795,recognitionstage,,2025.1.1,60.02346917347377,2026-01-26 19h45.28.267297 +0530,
,,,,,,,,,,,,,,,,,,,,,,,,,22,Female,Right handed,Corrected to normal,,,,,,,,,,,,,,,,,,,,,,,,,,,,,,,,,,,,,,,,,,,,,,,,,,,,,,,,,,,,,1931.2635507000377,1931.2806413000217,1931.2806413000217,1935.83053139993,space,4.544614500016905,None,sub58_NB,001,2026-01-26_19h43.53.795,recognitionstage,,2025.1.1,60.02346917347377,2026-01-26 19h45.28.267297 +0530,
