path,duration,is_repeat,thisN,thisTrialN,thisRepN,movie_id,target_img,lure_img,resp.keys,resp.corr,resp.rt,resp.duration,conf_radio.response,conf_radio.rt,movie.thisRepN,movie.thisTrialN,movie.thisN,movie.thisIndex,recogloop.thisRepN,recogloop.thisTrialN,recogloop.thisN,recogloop.thisIndex,thisRow.t,notes,age,gender,handedness,vision,caffeine_2h,alcohol_smoke_12h,demographics.started,demographics.stopped,Instructions.started,text1.started,key_resp.started,Instructions.stopped,key_resp.keys,key_resp.rt,key_resp.duration,instruction_2.started,text2.started,key_resp_2.started,instruction_2.stopped,key_resp_2.keys,key_resp_2.rt,key_resp_2.duration,Videos.started,movie_2.started,vigilance_resp.started,movie_2.stopped,Videos.stopped,movie.vigilance_resp.keys,vigilance_pressed,vigilance_correct,ISI.started,text.started,text.stopped,ISI.stopped,movie.vigilance_resp.rt,movie.vigilance_resp.duration,recognition.started,text_4.started,key_resp_3.started,recognition.stopped,key_resp_3.keys,key_resp_3.rt,key_resp_3.duration,recognition_task.started,leftimage.started,rightimage.started,resp.started,frames_question.started,right_label.started,left_label.started,recognition_task.stopped,recogloop.resp.keys,recogloop.resp.corr,recogloop.resp.rt,recogloop.resp.duration,confidence.started,conf_text.started,conf_radio.started,conf_label.started,confidence.stopped,recogloop.conf_radio.response,recogloop.conf_radio.rt,confidence,confidence_rt,thank_you.started,text_6.started,key_resp_4.started,thank_you.stopped,key_resp_4.keys,participant,session,date,expName,expVersion,psychopyVersion,frameRate,expStart,...103
,,,,,,,,,,,,,,,,,,,,,,,,,20,Male,Right handed,Normal,Caffeine consumed in last 2 hours?,Alcohol or smoking in last 12 hours?,0.014734399999724701,0.017101500001444947,,,,,,,,,,,,,,,,,,,,,,,,,,,,,,,,,,,,,,,,,,,,,,,,,,,,,,,,,,,,,,sub64_NB,001,2026-01-27_17h42.32.339,recognitionstage,,2025.1.1,59.86962789788907,2026-01-27 17h43.17.413874 +0530,
,,,,,,,,,,,,,,,,,,,,,,,,,20,Male,Right handed,Normal,,,,,0.017121999997470994,0.03386970000428846,0.03386970000428846,11.569398799998453,space,11.533831900000223,None,,,,,,,,,,,,,,,,,,,,,,,,,,,,,,,,,,,,,,,,,,,,,,,,,,,,,,,sub64_NB,001,2026-01-27_17h42.32.339,recognitionstage,,2025.1.1,59.86962789788907,2026-01-27 17h43.17.413874 +0530,
,,,,,,,,,,,,,,,,,,,,,,,,,20,Male,Right handed,Normal,,,,,,,,,,,,11.56944150000345,11.584151800001564,11.584151800001564,23.13701620000211,space,11.55161849999422,None,,,,,,,,,,,,,,,,,,,,,,,,,,,,,,,,,,,,,,,,,,,,,,,,sub64_NB,001,2026-01-27_17h42.32.339,recognitionstage,,2025.1.1,59.86962789788907,2026-01-27 17h43.17.413874 +0530,
Trimmed_videos/natural_2.mp4,31,0,44,44,0,,,,,,,,,,0,44,44,1,,,,,1523.4671013000043,,20,Male,Right handed,Normal,,,,,,,,,,,,,,,,,,,1523.4209787,1523.4671013000043,1523.4671013000043,1555.2329323000013,1555.0896733000045,None,0,1,1555.2249317000023,1555.2329323000013,1557.7348539000013,1557.718982899998,1.5837940999990678,None,1557.7190569000013,1557.7348539000013,1557.7348539000013,1587.8525651000018,space,30.105157699996198,None,,,,,,,,,,,,,,,,,,,,,,,,,,,sub64_NB,001,2026-01-27_17h42.32.339,recognitionstage,,2025.1.1,59.86962789788907,2026-01-27 17h43.17.413874 +0530,
,,,0,0,0,26,frames\Vid26_EM_T.png,frames\Vid26_L.png,['l'],1,[3.3654481999983545],[None],5,8.115067999999155,,,,,0,0,0,25,1587.8825135000006,,20,Male,Right handed,Normal,,,,,,,,,,,,,,,,,,,,,,,,,,,,,,,,,,,,,,,,1587.8736485000045,1587.8825135000006,1587.8825135000006,1587.8825135000006,1587.8825135000006,1587.8825135000006,1587.8825135000006,1591.2522375000044,['l'],1,[3.3654481999983545],[None],1591.2532030000002,1591.2819439000014,1591.2819439000014,1591.2819439000014,1599.384100299998,5,8.115067999999155,5,8.115067999999155,,,,,,sub64_NB,001,2026-01-27_17h42.32.339,recognitionstage,,2025.1.1,59.86962789788907,2026-01-27 17h43.17.413874 +0530,
,,,1,1,0,10,frames\Vid10_BB_T.png,frames\Vid10_L.png,['r'],1,[6.230533499998273],[None],4,2.714756800000032,,,,,0,1,1,9,1599.4494678000046,,20,Male,Right handed,Normal,,,,,,,,,,,,,,,,,,,,,,,,,,,,,,,,,,,,,,,,1599.4326989000037,1599.4494678000046,1599.4494678000046,1599.4494678000046,1599.4494678000046,1599.4494678000046,1599.4494678000046,1605.685729900004,['r'],1,[6.230533499998273],[None],1605.686805999998,1605.7008528000006,1605.7008528000006,1605.7008528000006,1608.4178883999994,4,2.714756800000032,4,2.714756800000032,,,,,,sub64_NB,001,2026-01-27_17h42.32.339,recognitionstage,,2025.1.1,59.86962789788907,2026-01-27 17h43.17.413874 +0530,
,,,2,2,0,7,frames\Vid7_EM_T.png,frames\Vid7_L.png,['l'],1,[7.940857499997946],[None],3,3.630736099999922,,,,,0,2,2,6,1608.4830201000004,,20,Male,Right handed,Normal,,,,,,,,,,,,,,,,,,,,,,,,,,,,,,,,,,,,,,,,1608.4772034999987,1608.4830201000004,1608.4830201000004,1608.4830201000004,1608.4830201000004,1608.4830201000004,1608.4830201000004,1616.4366192000016,['l'],1,[7.940857499997946],[None],1616.4376654000007,1616.450099200003,1616.450099200003,1616.450099200003,1620.084799199998,3,3.630736099999922,3,3.630736099999922,,,,,,sub64_NB,001,2026-01-27_17h42.32.339,recognitionstage,,2025.1.1,59.86962789788907,2026-01-27 17h43.17.413874 +0530,
,,,3,3,0,15,frames\Vid15_BB_T.png,frames\Vid15_L.png,['r'],1,[3.670018800003163],[None],5,2.2639397000020836,,,,,0,3,3,14,1620.1539016000024,,20,Male,Right handed,Normal,,,,,,,,,,,,,,,,,,,,,,,,,,,,,,,,,,,,,,,,1620.1354761000039,1620.1539016000024,1620.1539016000024,1620.1539016000024,1620.1539016000024,1620.1539016000024,1620.1539016000024,1623.8366401000021,['r'],1,[3.670018800003163],[None],1623.8377038000035,1623.8505915999995,1623.8505915999995,1623.8505915999995,1626.1177710000047,5,2.2639397000020836,5,2.2639397000020836,,,,,,sub64_NB,001,2026-01-27_17h42.32.339,recognitionstage,,2025.1.1,59.86962789788907,2026-01-27 17h43.17.413874 +0530,
,,,4,4,0,2,frames\Vid2_BB_T.png,frames\Vid2_L.png,['l'],1,[9.029493999994884],[None],4,1.8493423999971128,,,,,0,4,4,1,1626.1703152000046,,20,Male,Right handed,Normal,,,,,,,,,,,,,,,,,,,,,,,,,,,,,,,,,,,,,,,,1626.155071699999,1626.1703152000046,1626.1703152000046,1626.1703152000046,1626.1703152000046,1626.1703152000046,1626.1703152000046,1635.2021848000004,['l'],1,[9.029493999994884],[None],1635.2029939999993,1635.2173279999988,1635.2173279999988,1635.2173279999988,1637.0680350000039,4,1.8493423999971128,4,1.8493423999971128,,,,,,sub64_NB,001,2026-01-27_17h42.32.339,recognitionstage,,2025.1.1,59.86962789788907,2026-01-27 17h43.17.413874 +0530,
,,,5,5,0,36,frames\Vid36_BB_T.png,frames\Vid36_L.png,['r'],1,[6.280473099999654],[None],5,2.1644713999994565,,,,,0,5,5,35,1637.1035163999986,,20,Male,Right handed,Normal,,,,,,,,,,,,,,,,,,,,,,,,,,,,,,,,,,,,,,,,1637.0832306000011,1637.1035163999986,1637.1035163999986,1637.1035163999986,1637.1035163999986,1637.1035163999986,1637.1035163999986,1643.3865703000047,['r'],1,[6.280473099999654],[None],1643.3876372000013,1643.4152843000047,1643.4152843000047,1643.4152843000047,1645.5679481000043,5,2.1644713999994565,5,2.1644713999994565,,,,,,sub64_NB,001,2026-01-27_17h42.32.339,recognitionstage,,2025.1.1,59.86962789788907,2026-01-27 17h43.17.413874 +0530,
,,,6,6,0,39,frames\Vid39_BB_T.png,frames\Vid39_L.png,['r'],1,[10.870569400001841],[None],4,1.7966078000026755,,,,,0,6,6,38,1645.5854764000032,,20,Male,Right handed,Normal,,,,,,,,,,,,,,,,,,,,,,,,,,,,,,,,,,,,,,,,1645.5780214999977,1645.5854764000032,1645.5854764000032,1645.5854764000032,1645.5854764000032,1645.5854764000032,1645.5854764000032,1656.4700701000038,['r'],1,[10.870569400001841],[None],1656.471762400004,1656.4835292999996,1656.4835292999996,1656.4835292999996,1658.284421700002,4,1.7966078000026755,4,1.7966078000026755,,,,,,sub64_NB,001,2026-01-27_17h42.32.339,recognitionstage,,2025.1.1,59.86962789788907,2026-01-27 17h43.17.413874 +0530,
,,,7,7,0,3,frames\Vid3_BB_T.png,frames\Vid3_L.png,['r'],1,[3.1620476999960374],[None],5,1.8305591000025743,,,,,0,7,7,2,1658.3340919000038,,20,Male,Right handed,Normal,,,,,,,,,,,,,,,,,,,,,,,,,,,,,,,,,,,,,,,,1658.3234379999994,1658.3340919000038,1658.3340919000038,1658.3340919000038,1658.3340919000038,1658.3340919000038,1658.3340919000038,1661.5028508000032,['r'],1,[3.1620476999960374],[None],1661.5041553000046,1661.5318298999991,1661.5318298999991,1661.5318298999991,1663.3511675000045,5,1.8305591000025743,5,1.8305591000025743,,,,,,sub64_NB,001,2026-01-27_17h42.32.339,recognitionstage,,2025.1.1,59.86962789788907,2026-01-27 17h43.17.413874 +0530,
,,,8,8,0,4,frames\Vid4_EM_T.png,frames\Vid4_L.png,['r'],0,[5.267932499999006],[None],3,1.8321619999987888,,,,,0,8,8,3,1663.4201194999987,,20,Male,Right handed,Normal,,,,,,,,,,,,,,,,,,,,,,,,,,,,,,,,,,,,,,,,1663.3954704999996,1663.4201194999987,1663.4201194999987,1663.4201194999987,1663.4201194999987,1663.4201194999987,1663.4201194999987,1668.7018561000004,['r'],0,[5.267932499999006],[None],1668.702794900004,1668.716929000002,1668.716929000002,1668.716929000002,1670.551414499998,3,1.8321619999987888,3,1.8321619999987888,,,,,,sub64_NB,001,2026-01-27_17h42.32.339,recognitionstage,,2025.1.1,59.86962789788907,2026-01-27 17h43.17.413874 +0530,
,,,9,9,0,24,frames\Vid24_BB_T.png,frames\Vid24_L.png,['r'],1,[4.925550699997984],[None],4,3.066072100002202,,,,,0,9,9,23,1670.5864011000012,,20,Male,Right handed,Normal,,,,,,,,,,,,,,,,,,,,,,,,,,,,,,,,,,,,,,,,1670.564797799998,1670.5864011000012,1670.5864011000012,1670.5864011000012,1670.5864011000012,1670.5864011000012,1670.5864011000012,1675.5183929999985,['r'],1,[4.925550699997984],[None],1675.519147400002,1675.5344783000037,1675.5344783000037,1675.5344783000037,1678.601563199998,4,3.066072100002202,4,3.066072100002202,,,,,,sub64_NB,001,2026-01-27_17h42.32.339,recognitionstage,,2025.1.1,59.86962789788907,2026-01-27 17h43.17.413874 +0530,
,,,10,10,0,32,frames\Vid32_EM_T.png,frames\Vid32_L.png,['r'],1,[4.926217199994426],[None],5,2.8501723000008496,,,,,0,10,10,31,1678.633793699999,,20,Male,Right handed,Normal,,,,,,,,,,,,,,,,,,,,,,,,,,,,,,,,,,,,,,,,1678.6129222000018,1678.633793699999,1678.633793699999,1678.633793699999,1678.633793699999,1678.633793699999,1678.633793699999,1683.5683602999998,['r'],1,[4.926217199994426],[None],1683.5691216999985,1683.5838865999976,1683.5838865999976,1683.5838865999976,1686.434487700004,5,2.8501723000008496,5,2.8501723000008496,,,,,,sub64_NB,001,2026-01-27_17h42.32.339,recognitionstage,,2025.1.1,59.86962789788907,2026-01-27 17h43.17.413874 +0530,
,,,11,11,0,33,frames\Vid33_BB_T.png,frames\Vid33_L.png,['r'],1,[7.091223100003845],[None],5,1.74723339999764,,,,,0,11,11,32,1686.4528301000028,,20,Male,Right handed,Normal,,,,,,,,,,,,,,,,,,,,,,,,,,,,,,,,,,,,,,,,1686.4437343000027,1686.4528301000028,1686.4528301000028,1686.4528301000028,1686.4528301000028,1686.4528301000028,1686.4528301000028,1693.5529033999992,['r'],1,[7.091223100003845],[None],1693.5537163000045,1693.5669265000033,1693.5669265000033,1693.5669265000033,1695.3179006999999,5,1.74723339999764,5,1.74723339999764,,,,,,sub64_NB,001,2026-01-27_17h42.32.339,recognitionstage,,2025.1.1,59.86962789788907,2026-01-27 17h43.17.413874 +0530,
,,,12,12,0,22,frames\Vid22_EM_T.png,frames\Vid22_L.png,['r'],1,[5.393616900000779],[None],5,2.2648349000010057,,,,,0,12,12,21,1695.3503347000005,,20,Male,Right handed,Normal,,,,,,,,,,,,,,,,,,,,,,,,,,,,,,,,,,,,,,,,1695.3311962000007,1695.3503347000005,1695.3503347000005,1695.3503347000005,1695.3503347000005,1695.3503347000005,1695.3503347000005,1700.752451500004,['r'],1,[5.393616900000779],[None],1700.7534859000007,1700.767498000001,1700.767498000001,1700.767498000001,1703.0354984000005,5,2.2648349000010057,5,2.2648349000010057,,,,,,sub64_NB,001,2026-01-27_17h42.32.339,recognitionstage,,2025.1.1,59.86962789788907,2026-01-27 17h43.17.413874 +0530,
,,,13,13,0,17,frames\Vid17_BB_T.png,frames\Vid17_L.png,['r'],1,[10.348582599996007],[None],1,3.7634078999981284,,,,,0,13,13,16,1703.0673605999982,,20,Male,Right handed,Normal,,,,,,,,,,,,,,,,,,,,,,,,,,,,,,,,,,,,,,,,1703.0603424,1703.0673605999982,1703.0673605999982,1703.0673605999982,1703.0673605999982,1703.0673605999982,1703.0673605999982,1713.4206984999983,['r'],1,[10.348582599996007],[None],1713.4218317999985,1713.4336977999992,1713.4336977999992,1713.4336977999992,1717.2015324000022,1,3.7634078999981284,1,3.7634078999981284,,,,,,sub64_NB,001,2026-01-27_17h42.32.339,recognitionstage,,2025.1.1,59.86962789788907,2026-01-27 17h43.17.413874 +0530,
,,,14,14,0,40,frames\Vid40_EM_T.png,frames\Vid40_L.png,['l'],1,[4.460192099999404],[None],5,1.8986672999963048,,,,,0,14,14,39,1717.2356588000039,,20,Male,Right handed,Normal,,,,,,,,,,,,,,,,,,,,,,,,,,,,,,,,,,,,,,,,1717.2142671000038,1717.2356588000039,1717.2356588000039,1717.2356588000039,1717.2356588000039,1717.2356588000039,1717.2356588000039,1721.7022165000017,['l'],1,[4.460192099999404],[None],1721.7031160000042,1721.717502200001,1721.717502200001,1721.717502200001,1723.6182585999995,5,1.8986672999963048,5,1.8986672999963048,,,,,,sub64_NB,001,2026-01-27_17h42.32.339,recognitionstage,,2025.1.1,59.86962789788907,2026-01-27 17h43.17.413874 +0530,
,,,15,15,0,21,frames\Vid21_BB_T.png,frames\Vid21_L.png,['l'],1,[4.837357899996277],[None],4,1.9466847999938182,,,,,0,15,15,20,1723.6505679000038,,20,Male,Right handed,Normal,,,,,,,,,,,,,,,,,,,,,,,,,,,,,,,,,,,,,,,,1723.630937300004,1723.6505679000038,1723.6505679000038,1723.6505679000038,1723.6505679000038,1723.6505679000038,1723.6505679000038,1728.5031734000004,['l'],1,[4.837357899996277],[None],1728.5044381000043,1728.516831599998,1728.516831599998,1728.516831599998,1730.468187999999,4,1.9466847999938182,4,1.9466847999938182,,,,,,sub64_NB,001,2026-01-27_17h42.32.339,recognitionstage,,2025.1.1,59.86962789788907,2026-01-27 17h43.17.413874 +0530,
,,,16,16,0,37,frames\Vid37_BB_T.png,frames\Vid37_L.png,['r'],1,[3.251238500000909],[None],5,1.798031099999207,,,,,0,16,16,36,1730.500624500004,,20,Male,Right handed,Normal,,,,,,,,,,,,,,,,,,,,,,,,,,,,,,,,,,,,,,,,1730.4816635000025,1730.500624500004,1730.500624500004,1730.500624500004,1730.500624500004,1730.500624500004,1730.500624500004,1733.752730799999,['r'],1,[3.251238500000909],[None],1733.7535043000025,1733.7669288000034,1733.7669288000034,1733.7669288000034,1735.5675950000004,5,1.798031099999207,5,1.798031099999207,,,,,,sub64_NB,001,2026-01-27_17h42.32.339,recognitionstage,,2025.1.1,59.86962789788907,2026-01-27 17h43.17.413874 +0530,
,,,17,17,0,25,frames\Vid25_BB_T.png,frames\Vid25_L.png,['r'],0,[5.95013900000049],[None],5,1.9143096000043442,,,,,0,17,17,24,1735.5858116000018,,20,Male,Right handed,Normal,,,,,,,,,,,,,,,,,,,,,,,,,,,,,,,,,,,,,,,,1735.5775532999978,1735.5858116000018,1735.5858116000018,1735.5858116000018,1735.5858116000018,1735.5858116000018,1735.5858116000018,1741.5527425000037,['r'],0,[5.95013900000049],[None],1741.5536270000011,1741.5669472000009,1741.5669472000009,1741.5669472000009,1743.4852637000004,5,1.9143096000043442,5,1.9143096000043442,,,,,,sub64_NB,001,2026-01-27_17h42.32.339,recognitionstage,,2025.1.1,59.86962789788907,2026-01-27 17h43.17.413874 +0530,
,,,18,18,0,11,frames\Vid11_EM_T.png,frames\Vid11_L.png,['l'],1,[3.449779900001886],[None],5,1.5304466999950819,,,,,0,18,18,10,1743.534206299999,,20,Male,Right handed,Normal,,,,,,,,,,,,,,,,,,,,,,,,,,,,,,,,,,,,,,,,1743.528138200003,1743.534206299999,1743.534206299999,1743.534206299999,1743.534206299999,1743.534206299999,1743.534206299999,1746.9867228000003,['l'],1,[3.449779900001886],[None],1746.9877400999976,1747.0002851000027,1747.0002851000027,1747.0002851000027,1748.5342279000033,5,1.5304466999950819,5,1.5304466999950819,,,,,,sub64_NB,001,2026-01-27_17h42.32.339,recognitionstage,,2025.1.1,59.86962789788907,2026-01-27 17h43.17.413874 +0530,
,,,19,19,0,38,frames\Vid38_EM_T.png,frames\Vid38_L.png,['r'],1,[6.221153200000117],[None],4,1.6655438000016147,,,,,0,19,19,37,1748.554690900004,,20,Male,Right handed,Normal,,,,,,,,,,,,,,,,,,,,,,,,,,,,,,,,,,,,,,,,1748.5441699000003,1748.554690900004,1748.554690900004,1748.554690900004,1748.554690900004,1748.554690900004,1748.554690900004,1754.785581600001,['r'],1,[6.221153200000117],[None],1754.7861707000047,1754.800235900002,1754.800235900002,1754.800235900002,1756.4678084000043,4,1.6655438000016147,4,1.6655438000016147,,,,,,sub64_NB,001,2026-01-27_17h42.32.339,recognitionstage,,2025.1.1,59.86962789788907,2026-01-27 17h43.17.413874 +0530,
,,,20,20,0,28,frames\Vid28_EM_T.png,frames\Vid28_L.png,['r'],1,[2.8597444999977597],[None],5,1.5992406999939703,,,,,0,20,20,27,1756.5002597999992,,20,Male,Right handed,Normal,,,,,,,,,,,,,,,,,,,,,,,,,,,,,,,,,,,,,,,,1756.4783324000018,1756.5002597999992,1756.5002597999992,1756.5002597999992,1756.5002597999992,1756.5002597999992,1756.5002597999992,1759.3683243999985,['r'],1,[2.8597444999977597],[None],1759.3691307000045,1759.3842682000031,1759.3842682000031,1759.3842682000031,1760.9852322000006,5,1.5992406999939703,5,1.5992406999939703,,,,,,sub64_NB,001,2026-01-27_17h42.32.339,recognitionstage,,2025.1.1,59.86962789788907,2026-01-27 17h43.17.413874 +0530,
,,,21,21,0,5,frames\Vid5_EM_T.png,frames\Vid5_L.png,['l'],1,[4.837814400001662],[None],4,1.5809841000009328,,,,,0,21,21,4,1761.0341082000014,,20,Male,Right handed,Normal,,,,,,,,,,,,,,,,,,,,,,,,,,,,,,,,,,,,,,,,1761.0145945999975,1761.0341082000014,1761.0341082000014,1761.0341082000014,1761.0341082000014,1761.0341082000014,1761.0341082000014,1765.885977500002,['l'],1,[4.837814400001662],[None],1765.886931000001,1765.900429100002,1765.900429100002,1765.900429100002,1767.484980000001,4,1.5809841000009328,4,1.5809841000009328,,,,,,sub64_NB,001,2026-01-27_17h42.32.339,recognitionstage,,2025.1.1,59.86962789788907,2026-01-27 17h43.17.413874 +0530,
,,,22,22,0,8,frames\Vid8_BB_T.png,frames\Vid8_L.png,['r'],1,[3.4157731000013882],[None],5,11.347660999999789,,,,,0,22,22,7,1767.536307800001,,20,Male,Right handed,Normal,,,,,,,,,,,,,,,,,,,,,,,,,,,,,,,,,,,,,,,,1767.5227448000005,1767.536307800001,1767.536307800001,1767.536307800001,1767.536307800001,1767.536307800001,1767.536307800001,1770.952667700003,['r'],1,[3.4157731000013882],[None],1770.953631700002,1770.9668028000015,1770.9668028000015,1770.9668028000015,1782.3184502000004,5,11.347660999999789,5,11.347660999999789,,,,,,sub64_NB,001,2026-01-27_17h42.32.339,recognitionstage,,2025.1.1,59.86962789788907,2026-01-27 17h43.17.413874 +0530,
,,,23,23,0,35,frames\Vid35_EM_T.png,frames\Vid35_L.png,['l'],1,[4.069593000000168],[None],5,1.599000399997749,,,,,0,23,23,34,1782.3383994000033,,20,Male,Right handed,Normal,,,,,,,,,,,,,,,,,,,,,,,,,,,,,,,,,,,,,,,,1782.3271213000044,1782.3383994000033,1782.3383994000033,1782.3383994000033,1782.3383994000033,1782.3383994000033,1782.3383994000033,1786.4190019000016,['l'],1,[4.069593000000168],[None],1786.4195093000017,1786.4335148000027,1786.4335148000027,1786.4335148000027,1788.033965900002,5,1.599000399997749,5,1.599000399997749,,,,,,sub64_NB,001,2026-01-27_17h42.32.339,recognitionstage,,2025.1.1,59.86962789788907,2026-01-27 17h43.17.413874 +0530,
,,,24,24,0,19,frames\Vid19_BB_T.png,frames\Vid19_L.png,['l'],1,[5.0437307999964105],[None],4,1.8640875999990385,,,,,0,24,24,18,1788.0523864999996,,20,Male,Right handed,Normal,,,,,,,,,,,,,,,,,,,,,,,,,,,,,,,,,,,,,,,,1788.0440467000008,1788.0523864999996,1788.0523864999996,1788.0523864999996,1788.0523864999996,1788.0523864999996,1788.0523864999996,1793.102621500002,['l'],1,[5.0437307999964105],[None],1793.1038827000011,1793.1172872000025,1793.1172872000025,1793.1172872000025,1794.9852690000043,4,1.8640875999990385,4,1.8640875999990385,,,,,,sub64_NB,001,2026-01-27_17h42.32.339,recognitionstage,,2025.1.1,59.86962789788907,2026-01-27 17h43.17.413874 +0530,
,,,25,25,0,34,frames\Vid34_BB_T.png,frames\Vid34_L.png,['r'],1,[3.5425103999950807],[None],5,1.5142760000017006,,,,,0,25,25,33,1795.0174879999977,,20,Male,Right handed,Normal,,,,,,,,,,,,,,,,,,,,,,,,,,,,,,,,,,,,,,,,1794.9957849999992,1795.0174879999977,1795.0174879999977,1795.0174879999977,1795.0174879999977,1795.0174879999977,1795.0174879999977,1798.5692983000044,['r'],1,[3.5425103999950807],[None],1798.570357800003,1798.5834372000027,1798.5834372000027,1798.5834372000027,1800.1018540000005,5,1.5142760000017006,5,1.5142760000017006,,,,,,sub64_NB,001,2026-01-27_17h42.32.339,recognitionstage,,2025.1.1,59.86962789788907,2026-01-27 17h43.17.413874 +0530,
,,,26,26,0,30,frames\Vid30_EM_T.png,frames\Vid30_L.png,['r'],1,[9.24211440000363],[None],5,1.5974165000006906,,,,,0,26,26,29,1800.1339466999998,,20,Male,Right handed,Normal,,,,,,,,,,,,,,,,,,,,,,,,,,,,,,,,,,,,,,,,1800.114483700003,1800.1339466999998,1800.1339466999998,1800.1339466999998,1800.1339466999998,1800.1339466999998,1800.1339466999998,1809.3872907999976,['r'],1,[9.24211440000363],[None],1809.3884347999992,1809.4000986000028,1809.4000986000028,1809.4000986000028,1811.0009235000034,5,1.5974165000006906,5,1.5974165000006906,,,,,,sub64_NB,001,2026-01-27_17h42.32.339,recognitionstage,,2025.1.1,59.86962789788907,2026-01-27 17h43.17.413874 +0530,
,,,27,27,0,31,frames\Vid31_EM_T.png,frames\Vid31_L.png,['l'],1,[4.748677899995528],[None],5,1.7488908000013907,,,,,0,27,27,30,1811.0192710999982,,20,Male,Right handed,Normal,,,,,,,,,,,,,,,,,,,,,,,,,,,,,,,,,,,,,,,,1811.008700600003,1811.0192710999982,1811.0192710999982,1811.0192710999982,1811.0192710999982,1811.0192710999982,1811.0192710999982,1815.7689586999986,['l'],1,[4.748677899995528],[None],1815.7699367000023,1815.784020500003,1815.784020500003,1815.784020500003,1817.534555899998,5,1.7488908000013907,5,1.7488908000013907,,,,,,sub64_NB,001,2026-01-27_17h42.32.339,recognitionstage,,2025.1.1,59.86962789788907,2026-01-27 17h43.17.413874 +0530,
,,,28,28,0,1,frames\Vid1_EM_T.png,frames\Vid1_L.png,['r'],0,[6.574828799995885],[None],5,1.5804831000059494,,,,,0,28,28,0,1817.6011635000032,,20,Male,Right handed,Normal,,,,,,,,,,,,,,,,,,,,,,,,,,,,,,,,,,,,,,,,1817.5804767000009,1817.6011635000032,1817.6011635000032,1817.6011635000032,1817.6011635000032,1817.6011635000032,1817.6011635000032,1824.1866872000028,['r'],0,[6.574828799995885],[None],1824.1876749000003,1824.2001820000005,1824.2001820000005,1824.2001820000005,1825.7851056,5,1.5804831000059494,5,1.5804831000059494,,,,,,sub64_NB,001,2026-01-27_17h42.32.339,recognitionstage,,2025.1.1,59.86962789788907,2026-01-27 17h43.17.413874 +0530,
,,,29,29,0,23,frames\Vid23_EM_T.png,frames\Vid23_L.png,['r'],1,[4.947991799999727],[None],4,1.6640555000049062,,,,,0,29,29,22,1825.8199448000014,,20,Male,Right handed,Normal,,,,,,,,,,,,,,,,,,,,,,,,,,,,,,,,,,,,,,,,1825.7998563,1825.8199448000014,1825.8199448000014,1825.8199448000014,1825.8199448000014,1825.8199448000014,1825.8199448000014,1830.769829900004,['r'],1,[4.947991799999727],[None],1830.7711256000039,1830.7835702000011,1830.7835702000011,1830.7835702000011,1832.4514333000043,4,1.6640555000049062,4,1.6640555000049062,,,,,,sub64_NB,001,2026-01-27_17h42.32.339,recognitionstage,,2025.1.1,59.86962789788907,2026-01-27 17h43.17.413874 +0530,
,,,30,30,0,27,frames\Vid27_BB_T.png,frames\Vid27_L.png,['r'],1,[4.450432099998579],[None],4,1.6974002999995719,,,,,0,30,30,26,1832.4695508000004,,20,Male,Right handed,Normal,,,,,,,,,,,,,,,,,,,,,,,,,,,,,,,,,,,,,,,,1832.4608659000005,1832.4695508000004,1832.4695508000004,1832.4695508000004,1832.4695508000004,1832.4695508000004,1832.4695508000004,1836.9370118000006,['r'],1,[4.450432099998579],[None],1836.9383492999987,1836.9501144000023,1836.9501144000023,1836.9501144000023,1838.650770100001,4,1.6974002999995719,4,1.6974002999995719,,,,,,sub64_NB,001,2026-01-27_17h42.32.339,recognitionstage,,2025.1.1,59.86962789788907,2026-01-27 17h43.17.413874 +0530,
,,,31,31,0,14,frames\Vid14_BB_T.png,frames\Vid14_L.png,['l'],1,[4.778489100004663],[None],3,1.397084399999585,,,,,0,31,31,13,1838.717596800001,,20,Male,Right handed,Normal,,,,,,,,,,,,,,,,,,,,,,,,,,,,,,,,,,,,,,,,1838.6955192000023,1838.717596800001,1838.717596800001,1838.717596800001,1838.717596800001,1838.717596800001,1838.717596800001,1843.5037003000034,['l'],1,[4.778489100004663],[None],1843.5047380000033,1843.5169516000024,1843.5169516000024,1843.5169516000024,1844.917610299999,3,1.397084399999585,3,1.397084399999585,,,,,,sub64_NB,001,2026-01-27_17h42.32.339,recognitionstage,,2025.1.1,59.86962789788907,2026-01-27 17h43.17.413874 +0530,
,,,32,32,0,16,frames\Vid16_EM_T.png,frames\Vid16_L.png,['r'],1,[3.25364169999375],[None],5,1.5491253000000142,,,,,0,32,32,15,1844.9702328999992,,20,Male,Right handed,Normal,,,,,,,,,,,,,,,,,,,,,,,,,,,,,,,,,,,,,,,,1844.956283899999,1844.9702328999992,1844.9702328999992,1844.9702328999992,1844.9702328999992,1844.9702328999992,1844.9702328999992,1848.2351160000035,['r'],1,[3.25364169999375],[None],1848.2359197000042,1848.250597899998,1848.250597899998,1848.250597899998,1849.8008561000024,5,1.5491253000000142,5,1.5491253000000142,,,,,,sub64_NB,001,2026-01-27_17h42.32.339,recognitionstage,,2025.1.1,59.86962789788907,2026-01-27 17h43.17.413874 +0530,
,,,33,33,0,6,frames\Vid6_BB_T.png,frames\Vid6_L.png,['r'],1,[4.346261099999538],[None],5,1.4482628999976441,,,,,0,33,33,5,1849.8536982000005,,20,Male,Right handed,Normal,,,,,,,,,,,,,,,,,,,,,,,,,,,,,,,,,,,,,,,,1849.8435944000012,1849.8536982000005,1849.8536982000005,1849.8536982000005,1849.8536982000005,1849.8536982000005,1849.8536982000005,1854.202777999999,['r'],1,[4.346261099999538],[None],1854.2036288000018,1854.2169670000003,1854.2169670000003,1854.2169670000003,1855.6682122999991,5,1.4482628999976441,5,1.4482628999976441,,,,,,sub64_NB,001,2026-01-27_17h42.32.339,recognitionstage,,2025.1.1,59.86962789788907,2026-01-27 17h43.17.413874 +0530,
,,,34,34,0,9,frames\Vid9_EM_T.png,frames\Vid9_L.png,['r'],1,[4.927270200001658],[None],5,1.6646125000042957,,,,,0,34,34,8,1855.7208365999977,,20,Male,Right handed,Normal,,,,,,,,,,,,,,,,,,,,,,,,,,,,,,,,,,,,,,,,1855.7052865000005,1855.7208365999977,1855.7208365999977,1855.7208365999977,1855.7208365999977,1855.7208365999977,1855.7208365999977,1860.6522828000016,['r'],1,[4.927270200001658],[None],1860.6532821,1860.667295799998,1860.667295799998,1860.667295799998,1862.3345172000045,5,1.6646125000042957,5,1.6646125000042957,,,,,,sub64_NB,001,2026-01-27_17h42.32.339,recognitionstage,,2025.1.1,59.86962789788907,2026-01-27 17h43.17.413874 +0530,
,,,35,35,0,12,frames\Vid12_EM_T.png,frames\Vid12_L.png,['l'],1,[3.805104899998696],[None],5,1.2983789999998407,,,,,0,35,35,11,1862.3868766000014,,20,Male,Right handed,Normal,,,,,,,,,,,,,,,,,,,,,,,,,,,,,,,,,,,,,,,,1862.3765265000038,1862.3868766000014,1862.3868766000014,1862.3868766000014,1862.3868766000014,1862.3868766000014,1862.3868766000014,1866.2023869999975,['l'],1,[3.805104899998696],[None],1866.2031375000006,1866.2171778000047,1866.2171778000047,1866.2171778000047,1867.5174201000045,5,1.2983789999998407,5,1.2983789999998407,,,,,,sub64_NB,001,2026-01-27_17h42.32.339,recognitionstage,,2025.1.1,59.86962789788907,2026-01-27 17h43.17.413874 +0530,
,,,36,36,0,20,frames\Vid20_EM_T.png,frames\Vid20_L.png,['r'],1,[3.765197900000203],[None],5,1.4647021000055247,,,,,0,36,36,19,1867.5387590000028,,20,Male,Right handed,Normal,,,,,,,,,,,,,,,,,,,,,,,,,,,,,,,,,,,,,,,,1867.5232372000028,1867.5387590000028,1867.5387590000028,1867.5387590000028,1867.5387590000028,1867.5387590000028,1867.5387590000028,1871.3192389000033,['r'],1,[3.765197900000203],[None],1871.320496799999,1871.333947500003,1871.333947500003,1871.333947500003,1872.802042700001,5,1.4647021000055247,5,1.4647021000055247,,,,,,sub64_NB,001,2026-01-27_17h42.32.339,recognitionstage,,2025.1.1,59.86962789788907,2026-01-27 17h43.17.413874 +0530,
,,,37,37,0,18,frames\Vid18_EM_T.png,frames\Vid18_L.png,['r'],1,[5.950469000003068],[None],3,1.4320167000041693,,,,,0,37,37,17,1872.8334230000037,,20,Male,Right handed,Normal,,,,,,,,,,,,,,,,,,,,,,,,,,,,,,,,,,,,,,,,1872.8148636999977,1872.8334230000037,1872.8334230000037,1872.8334230000037,1872.8334230000037,1872.8334230000037,1872.8334230000037,1878.7855601000047,['r'],1,[5.950469000003068],[None],1878.786431200002,1878.8002536999993,1878.8002536999993,1878.8002536999993,1880.2342064999975,3,1.4320167000041693,3,1.4320167000041693,,,,,,sub64_NB,001,2026-01-27_17h42.32.339,recognitionstage,,2025.1.1,59.86962789788907,2026-01-27 17h43.17.413874 +0530,
,,,38,38,0,13,frames\Vid13_BB_T.png,frames\Vid13_L.png,['l'],1,[8.147662799994578],[None],3,0.9982853999972576,,,,,0,38,38,12,1880.2844165999995,,20,Male,Right handed,Normal,,,,,,,,,,,,,,,,,,,,,,,,,,,,,,,,,,,,,,,,1880.2665478999988,1880.2844165999995,1880.2844165999995,1880.2844165999995,1880.2844165999995,1880.2844165999995,1880.2844165999995,1888.4359569000007,['l'],1,[8.147662799994578],[None],1888.436776100003,1888.4502286999996,1888.4502286999996,1888.4502286999996,1889.451022000001,3,0.9982853999972576,3,0.9982853999972576,,,,,,sub64_NB,001,2026-01-27_17h42.32.339,recognitionstage,,2025.1.1,59.86962789788907,2026-01-27 17h43.17.413874 +0530,
,,,39,39,0,29,frames\Vid29_BB_T.png,frames\Vid29_L.png,['r'],0,[6.793726700001571],[None],3,0.9980384000009508,,,,,0,39,39,28,1889.4862699000005,,20,Male,Right handed,Normal,,,,,,,,,,,,,,,,,,,,,,,,,,,,,,,,,,,,,,,,1889.4621975000045,1889.4862699000005,1889.4862699000005,1889.4862699000005,1889.4862699000005,1889.4862699000005,1889.4862699000005,1896.2856943000006,['r'],0,[6.793726700001571],[None],1896.286752699998,1896.3006989999994,1896.3006989999994,1896.3006989999994,1897.3019958000004,3,0.9980384000009508,3,0.9980384000009508,,,,,,sub64_NB,001,2026-01-27_17h42.32.339,recognitionstage,,2025.1.1,59.86962789788907,2026-01-27 17h43.17.413874 +0530,
,,,,,,,,,,,,,,,,,,,,,,,,,20,Male,Right handed,Normal,,,,,,,,,,,,,,,,,,,,,,,,,,,,,,,,,,,,,,,,,,,,,,,,,,,,,,,,,,,,,1897.3021156000032,1897.3183544999993,1897.3183544999993,1917.3028636000017,None,sub64_NB,001,2026-01-27_17h42.32.339,recognitionstage,,2025.1.1,59.86962789788907,2026-01-27 17h43.17.413874 +0530,
