path,duration,is_repeat,thisN,thisTrialN,thisRepN,movie_id,target_img,lure_img,resp.keys,resp.corr,resp.rt,resp.duration,conf_radio.response,conf_radio.rt,movie.thisRepN,movie.thisTrialN,movie.thisN,movie.thisIndex,recogloop.thisRepN,recogloop.thisTrialN,recogloop.thisN,recogloop.thisIndex,thisRow.t,notes,age,gender,handedness,vision,caffeine_2h,alcohol_smoke_12h,demographics.started,demographics.stopped,Instructions.started,text1.started,key_resp.started,Instructions.stopped,key_resp.keys,key_resp.rt,key_resp.duration,instruction_2.started,text2.started,key_resp_2.started,instruction_2.stopped,key_resp_2.keys,key_resp_2.rt,key_resp_2.duration,Videos.started,movie_2.started,vigilance_resp.started,movie_2.stopped,Videos.stopped,movie.vigilance_resp.keys,vigilance_pressed,vigilance_correct,ISI.started,text.started,text.stopped,ISI.stopped,movie.vigilance_resp.rt,movie.vigilance_resp.duration,recognition.started,text_4.started,key_resp_3.started,recognition.stopped,key_resp_3.keys,key_resp_3.rt,key_resp_3.duration,recognition_task.started,leftimage.started,rightimage.started,resp.started,frames_question.started,right_label.started,left_label.started,recognition_task.stopped,recogloop.resp.keys,recogloop.resp.corr,recogloop.resp.rt,recogloop.resp.duration,confidence.started,conf_text.started,conf_radio.started,conf_label.started,confidence.stopped,recogloop.conf_radio.response,recogloop.conf_radio.rt,confidence,confidence_rt,thank_you.started,text_6.started,key_resp_4.started,thank_you.stopped,key_resp_4.keys,participant,session,date,expName,expVersion,psychopyVersion,frameRate,expStart,...103
,,,,,,,,,,,,,,,,,,,,,,,,,23,Female,Right handed,Normal,Caffeine consumed in last 2 hours?,Alcohol or smoking in last 12 hours?,0.011142499999550637,0.06793669999751728,,,,,,,,,,,,,,,,,,,,,,,,,,,,,,,,,,,,,,,,,,,,,,,,,,,,,,,,,,,,,,sub60_nb,001,2026-01-27_15h05.33.448,recognitionstage,,2025.1.1,59.59088473782529,2026-01-27 15h06.09.337836 +0530,
,,,,,,,,,,,,,,,,,,,,,,,,,23,Female,Right handed,Normal,,,,,0.0679660999958287,0.07802190000074916,0.07802190000074916,13.665191499996581,space,13.584975099998701,None,,,,,,,,,,,,,,,,,,,,,,,,,,,,,,,,,,,,,,,,,,,,,,,,,,,,,,,sub60_nb,001,2026-01-27_15h05.33.448,recognitionstage,,2025.1.1,59.59088473782529,2026-01-27 15h06.09.337836 +0530,
,,,,,,,,,,,,,,,,,,,,,,,,,23,Female,Right handed,Normal,,,,,,,,,,,,13.665232799998194,13.680478599999333,13.680478599999333,26.181623199998285,space,12.494539999999688,None,,,,,,,,,,,,,,,,,,,,,,,,,,,,,,,,,,,,,,,,,,,,,,,,sub60_nb,001,2026-01-27_15h05.33.448,recognitionstage,,2025.1.1,59.59088473782529,2026-01-27 15h06.09.337836 +0530,
Trimmed_videos/natural_37.mp4,39,1,44,44,0,,,,,,,,,,0,44,44,40,,,,,1544.913111599999,,23,Female,Right handed,Normal,,,,,,,,,,,,,,,,,,,1544.8662915999957,1544.913111599999,1544.913111599999,1541.646094799995,1547.0991049000004,space,1,1,1547.2001883999983,1547.2120925999989,1549.7145825999978,1549.6985793999993,2.1819264000005205,None,1549.698650899998,1549.7145825999978,1549.7145825999978,1591.8491835999957,space,42.132533899995906,None,,,,,,,,,,,,,,,,,,,,,,,,,,,sub60_nb,001,2026-01-27_15h05.33.448,recognitionstage,,2025.1.1,59.59088473782529,2026-01-27 15h06.09.337836 +0530,
,,,0,0,0,19,frames\Vid19_BB_T.png,frames\Vid19_L.png,['l'],0,[15.048480699995707],[None],3,13.313997400000517,,,,,0,0,0,18,1591.8786974999966,,23,Female,Right handed,Normal,,,,,,,,,,,,,,,,,,,,,,,,,,,,,,,,,,,,,,,,1591.8690490000008,1591.8786974999966,1591.8786974999966,1591.8786974999966,1591.8786974999966,1591.8786974999966,1591.8786974999966,1606.9324332999968,['l'],0,[15.048480699995707],[None],1606.9337173999957,1606.9615844,1606.9615844,1606.9615844,1620.2635305000003,3,13.313997400000517,3,13.313997400000517,,,,,,sub60_nb,001,2026-01-27_15h05.33.448,recognitionstage,,2025.1.1,59.59088473782529,2026-01-27 15h06.09.337836 +0530,
,,,1,1,0,24,frames\Vid24_BB_T.png,frames\Vid24_L.png,['l'],1,[5.1595651999959955],[None],5,3.481772600003751,,,,,0,1,1,23,1620.2955136000019,,23,Female,Right handed,Normal,,,,,,,,,,,,,,,,,,,,,,,,,,,,,,,,,,,,,,,,1620.280600799997,1620.2955136000019,1620.2955136000019,1620.2955136000019,1620.2955136000019,1620.2955136000019,1620.2955136000019,1625.4650597,['l'],1,[5.1595651999959955],[None],1625.4659601999956,1625.480172800002,1625.480172800002,1625.480172800002,1628.963656,5,3.481772600003751,5,3.481772600003751,,,,,,sub60_nb,001,2026-01-27_15h05.33.448,recognitionstage,,2025.1.1,59.59088473782529,2026-01-27 15h06.09.337836 +0530,
,,,2,2,0,6,frames\Vid6_BB_T.png,frames\Vid6_L.png,['r'],1,[3.9686280000023544],[None],5,1.931413899998006,,,,,0,2,2,5,1629.0308915999994,,23,Female,Right handed,Normal,,,,,,,,,,,,,,,,,,,,,,,,,,,,,,,,,,,,,,,,1629.012833599998,1629.0308915999994,1629.0308915999994,1629.0308915999994,1629.0308915999994,1629.0308915999994,1629.0308915999994,1633.0153902999955,['r'],1,[3.9686280000023544],[None],1633.0163247999953,1633.0298800000019,1633.0298800000019,1633.0298800000019,1634.963615200002,5,1.931413899998006,5,1.931413899998006,,,,,,sub60_nb,001,2026-01-27_15h05.33.448,recognitionstage,,2025.1.1,59.59088473782529,2026-01-27 15h06.09.337836 +0530,
,,,3,3,0,16,frames\Vid16_EM_T.png,frames\Vid16_L.png,['l'],1,[6.3140120999960345],[None],4,2.3646803999945405,,,,,0,3,3,15,1635.0291887999992,,23,Female,Right handed,Normal,,,,,,,,,,,,,,,,,,,,,,,,,,,,,,,,,,,,,,,,1635.0229583999972,1635.0291887999992,1635.0291887999992,1635.0291887999992,1635.0291887999992,1635.0291887999992,1635.0291887999992,1641.3492927999978,['l'],1,[6.3140120999960345],[None],1641.3501357999994,1641.3631490999978,1641.3631490999978,1641.3631490999978,1643.730406099996,4,2.3646803999945405,4,2.3646803999945405,,,,,,sub60_nb,001,2026-01-27_15h05.33.448,recognitionstage,,2025.1.1,59.59088473782529,2026-01-27 15h06.09.337836 +0530,
,,,4,4,0,3,frames\Vid3_BB_T.png,frames\Vid3_L.png,['r'],1,[2.887909999997646],[None],5,1.7479346999971312,,,,,0,4,4,2,1643.7832019999987,,23,Female,Right handed,Normal,,,,,,,,,,,,,,,,,,,,,,,,,,,,,,,,,,,,,,,,1643.7706361000019,1643.7832019999987,1643.7832019999987,1643.7832019999987,1643.7832019999987,1643.7832019999987,1643.7832019999987,1646.6822391999958,['r'],1,[2.887909999997646],[None],1646.683421099995,1646.6971654000008,1646.6971654000008,1646.6971654000008,1648.4471916999973,5,1.7479346999971312,5,1.7479346999971312,,,,,,sub60_nb,001,2026-01-27_15h05.33.448,recognitionstage,,2025.1.1,59.59088473782529,2026-01-27 15h06.09.337836 +0530,
,,,5,5,0,10,frames\Vid10_BB_T.png,frames\Vid10_L.png,['l'],1,[5.53091200000199],[None],4,2.529067600000417,,,,,0,5,5,9,1648.5002860999957,,23,Female,Right handed,Normal,,,,,,,,,,,,,,,,,,,,,,,,,,,,,,,,,,,,,,,,1648.4893632999956,1648.5002860999957,1648.5002860999957,1648.5002860999957,1648.5002860999957,1648.5002860999957,1648.5002860999957,1654.0334625999967,['l'],1,[5.53091200000199],[None],1654.0349557000009,1654.0468747999985,1654.0468747999985,1654.0468747999985,1656.5807413000002,4,2.529067600000417,4,2.529067600000417,,,,,,sub60_nb,001,2026-01-27_15h05.33.448,recognitionstage,,2025.1.1,59.59088473782529,2026-01-27 15h06.09.337836 +0530,
,,,6,6,0,32,frames\Vid32_EM_T.png,frames\Vid32_L.png,['l'],1,[2.3823622000054456],[None],5,1.4132269000037923,,,,,0,6,6,31,1656.6168431999977,,23,Female,Right handed,Normal,,,,,,,,,,,,,,,,,,,,,,,,,,,,,,,,,,,,,,,,1656.5921115999954,1656.6168431999977,1656.6168431999977,1656.6168431999977,1656.6168431999977,1656.6168431999977,1656.6168431999977,1659.0004046999966,['l'],1,[2.3823622000054456],[None],1659.0016374999977,1659.0285728999952,1659.0285728999952,1659.0285728999952,1660.4303688,5,1.4132269000037923,5,1.4132269000037923,,,,,,sub60_nb,001,2026-01-27_15h05.33.448,recognitionstage,,2025.1.1,59.59088473782529,2026-01-27 15h06.09.337836 +0530,
,,,7,7,0,21,frames\Vid21_BB_T.png,frames\Vid21_L.png,['l'],1,[10.231184600001143],[None],5,1.8165157000039471,,,,,0,7,7,20,1660.4637610999998,,23,Female,Right handed,Normal,,,,,,,,,,,,,,,,,,,,,,,,,,,,,,,,,,,,,,,,1660.4432366999972,1660.4637610999998,1660.4637610999998,1660.4637610999998,1660.4637610999998,1660.4637610999998,1660.4637610999998,1670.6974379000021,['l'],1,[10.231184600001143],[None],1670.698059800001,1670.7135505999977,1670.7135505999977,1670.7135505999977,1672.531031599996,5,1.8165157000039471,5,1.8165157000039471,,,,,,sub60_nb,001,2026-01-27_15h05.33.448,recognitionstage,,2025.1.1,59.59088473782529,2026-01-27 15h06.09.337836 +0530,
,,,8,8,0,33,frames\Vid33_BB_T.png,frames\Vid33_L.png,['l'],1,[3.818203499999072],[None],5,1.8296658000035677,,,,,0,8,8,32,1672.5489992000003,,23,Female,Right handed,Normal,,,,,,,,,,,,,,,,,,,,,,,,,,,,,,,,,,,,,,,,1672.5406526000006,1672.5489992000003,1672.5489992000003,1672.5489992000003,1672.5489992000003,1672.5489992000003,1672.5489992000003,1676.3840435999955,['l'],1,[3.818203499999072],[None],1676.3853822999954,1676.4115964000011,1676.4115964000011,1676.4115964000011,1678.2314134999979,5,1.8296658000035677,5,1.8296658000035677,,,,,,sub60_nb,001,2026-01-27_15h05.33.448,recognitionstage,,2025.1.1,59.59088473782529,2026-01-27 15h06.09.337836 +0530,
,,,9,9,0,37,frames\Vid37_BB_T.png,frames\Vid37_L.png,['l'],1,[6.111480899999151],[None],5,1.6483364000014262,,,,,0,9,9,36,1678.263627399996,,23,Female,Right handed,Normal,,,,,,,,,,,,,,,,,,,,,,,,,,,,,,,,,,,,,,,,1678.2452889999986,1678.263627399996,1678.263627399996,1678.263627399996,1678.263627399996,1678.263627399996,1678.263627399996,1684.3824759999989,['l'],1,[6.111480899999151],[None],1684.3835084999955,1684.3963499999954,1684.3963499999954,1684.3963499999954,1686.0478294999994,5,1.6483364000014262,5,1.6483364000014262,,,,,,sub60_nb,001,2026-01-27_15h05.33.448,recognitionstage,,2025.1.1,59.59088473782529,2026-01-27 15h06.09.337836 +0530,
,,,10,10,0,31,frames\Vid31_EM_T.png,frames\Vid31_L.png,['l'],1,[3.334002399999008],[None],5,1.2652707000015653,,,,,0,10,10,30,1686.0651325,,23,Female,Right handed,Normal,,,,,,,,,,,,,,,,,,,,,,,,,,,,,,,,,,,,,,,,1686.0555597999992,1686.0651325,1686.0651325,1686.0651325,1686.0651325,1686.0651325,1686.0651325,1689.4159176999965,['l'],1,[3.334002399999008],[None],1689.4169091000003,1689.4297748999961,1689.4297748999961,1689.4297748999961,1690.6977062000005,5,1.2652707000015653,5,1.2652707000015653,,,,,,sub60_nb,001,2026-01-27_15h05.33.448,recognitionstage,,2025.1.1,59.59088473782529,2026-01-27 15h06.09.337836 +0530,
,,,11,11,0,34,frames\Vid34_BB_T.png,frames\Vid34_L.png,['l'],1,[7.187730699995882],[None],5,1.0309499000068172,,,,,0,11,11,33,1690.7153275999954,,23,Female,Right handed,Normal,,,,,,,,,,,,,,,,,,,,,,,,,,,,,,,,,,,,,,,,1690.7072106999985,1690.7153275999954,1690.7153275999954,1690.7153275999954,1690.7153275999954,1690.7153275999954,1690.7153275999954,1697.9155484000003,['l'],1,[7.187730699995882],[None],1697.9164025999999,1697.929720299995,1697.929720299995,1697.929720299995,1698.9649342999983,5,1.0309499000068172,5,1.0309499000068172,,,,,,sub60_nb,001,2026-01-27_15h05.33.448,recognitionstage,,2025.1.1,59.59088473782529,2026-01-27 15h06.09.337836 +0530,
,,,12,12,0,17,frames\Vid17_BB_T.png,frames\Vid17_L.png,['l'],1,[2.529404799999611],[None],5,0.9818775999956415,,,,,0,12,12,16,1699.0138479000016,,23,Female,Right handed,Normal,,,,,,,,,,,,,,,,,,,,,,,,,,,,,,,,,,,,,,,,1698.9927188000001,1699.0138479000016,1699.0138479000016,1699.0138479000016,1699.0138479000016,1699.0138479000016,1699.0138479000016,1701.5485965999978,['l'],1,[2.529404799999611],[None],1701.549446500001,1701.5634549999959,1701.5634549999959,1701.5634549999959,1702.5476974999983,5,0.9818775999956415,5,0.9818775999956415,,,,,,sub60_nb,001,2026-01-27_15h05.33.448,recognitionstage,,2025.1.1,59.59088473782529,2026-01-27 15h06.09.337836 +0530,
,,,13,13,0,2,frames\Vid2_BB_T.png,frames\Vid2_L.png,['r'],1,[5.2323815999989165],[None],5,1.01443719999952,,,,,0,13,13,1,1702.5988116000008,,23,Female,Right handed,Normal,,,,,,,,,,,,,,,,,,,,,,,,,,,,,,,,,,,,,,,,1702.5904884999982,1702.5988116000008,1702.5988116000008,1702.5988116000008,1702.5988116000008,1702.5988116000008,1702.5988116000008,1707.8321596999958,['r'],1,[5.2323815999989165],[None],1707.8334307999976,1707.8468964999993,1707.8468964999993,1707.8468964999993,1708.8637029999954,5,1.01443719999952,5,1.01443719999952,,,,,,sub60_nb,001,2026-01-27_15h05.33.448,recognitionstage,,2025.1.1,59.59088473782529,2026-01-27 15h06.09.337836 +0530,
,,,14,14,0,29,frames\Vid29_BB_T.png,frames\Vid29_L.png,['l'],1,[2.9621604999992996],[None],5,0.9130523999992874,,,,,0,14,14,28,1708.8851644999959,,23,Female,Right handed,Normal,,,,,,,,,,,,,,,,,,,,,,,,,,,,,,,,,,,,,,,,1708.8743465000007,1708.8851644999959,1708.8851644999959,1708.8851644999959,1708.8851644999959,1708.8851644999959,1708.8851644999959,1711.8500108000007,['l'],1,[2.9621604999992996],[None],1711.8512081000008,1711.863122099996,1711.863122099996,1711.863122099996,1712.7815020999988,5,0.9130523999992874,5,0.9130523999992874,,,,,,sub60_nb,001,2026-01-27_15h05.33.448,recognitionstage,,2025.1.1,59.59088473782529,2026-01-27 15h06.09.337836 +0530,
,,,15,15,0,38,frames\Vid38_EM_T.png,frames\Vid38_L.png,['l'],1,[7.017833199999586],[None],3,2.1991983000043547,,,,,0,15,15,37,1712.8133945000009,,23,Female,Right handed,Normal,,,,,,,,,,,,,,,,,,,,,,,,,,,,,,,,,,,,,,,,1712.792006399999,1712.8133945000009,1712.8133945000009,1712.8133945000009,1712.8133945000009,1712.8133945000009,1712.8133945000009,1719.8324794,['l'],1,[7.017833199999586],[None],1719.8336108000003,1719.8464259999964,1719.8464259999964,1719.8464259999964,1722.0476544999983,3,2.1991983000043547,3,2.1991983000043547,,,,,,sub60_nb,001,2026-01-27_15h05.33.448,recognitionstage,,2025.1.1,59.59088473782529,2026-01-27 15h06.09.337836 +0530,
,,,16,16,0,30,frames\Vid30_EM_T.png,frames\Vid30_L.png,['r'],1,[4.127107100001012],[None],5,1.2828978000034112,,,,,0,16,16,29,1722.0800655999992,,23,Female,Right handed,Normal,,,,,,,,,,,,,,,,,,,,,,,,,,,,,,,,,,,,,,,,1722.0584544000012,1722.0800655999992,1722.0800655999992,1722.0800655999992,1722.0800655999992,1722.0800655999992,1722.0800655999992,1726.2153783999966,['r'],1,[4.127107100001012],[None],1726.2165513,1726.2304164000016,1726.2304164000016,1726.2304164000016,1727.5138960999975,5,1.2828978000034112,5,1.2828978000034112,,,,,,sub60_nb,001,2026-01-27_15h05.33.448,recognitionstage,,2025.1.1,59.59088473782529,2026-01-27 15h06.09.337836 +0530,
,,,17,17,0,35,frames\Vid35_EM_T.png,frames\Vid35_L.png,['l'],1,[4.139022499999555],[None],5,1.6657159000023967,,,,,0,17,17,34,1727.5321280999997,,23,Female,Right handed,Normal,,,,,,,,,,,,,,,,,,,,,,,,,,,,,,,,,,,,,,,,1727.5218169,1727.5321280999997,1727.5321280999997,1727.5321280999997,1727.5321280999997,1727.5321280999997,1727.5321280999997,1731.6816799000007,['l'],1,[4.139022499999555],[None],1731.6826368999973,1731.697061400002,1731.697061400002,1731.697061400002,1733.3647448999982,5,1.6657159000023967,5,1.6657159000023967,,,,,,sub60_nb,001,2026-01-27_15h05.33.448,recognitionstage,,2025.1.1,59.59088473782529,2026-01-27 15h06.09.337836 +0530,
,,,18,18,0,7,frames\Vid7_EM_T.png,frames\Vid7_L.png,['l'],0,[5.352525099995546],[None],4,1.5319899000023725,,,,,0,18,18,6,1733.4313032999999,,23,Female,Right handed,Normal,,,,,,,,,,,,,,,,,,,,,,,,,,,,,,,,,,,,,,,,1733.4107091999977,1733.4313032999999,1733.4313032999999,1733.4313032999999,1733.4313032999999,1733.4313032999999,1733.4313032999999,1738.7984373,['l'],0,[5.352525099995546],[None],1738.7994189999954,1738.8135981000014,1738.8135981000014,1738.8135981000014,1740.348191099998,4,1.5319899000023725,4,1.5319899000023725,,,,,,sub60_nb,001,2026-01-27_15h05.33.448,recognitionstage,,2025.1.1,59.59088473782529,2026-01-27 15h06.09.337836 +0530,
,,,19,19,0,26,frames\Vid26_EM_T.png,frames\Vid26_L.png,['r'],1,[1.8805149999971036],[None],5,1.0977783000053023,,,,,0,19,19,25,1740.3825901999953,,23,Female,Right handed,Normal,,,,,,,,,,,,,,,,,,,,,,,,,,,,,,,,,,,,,,,,1740.3643099999972,1740.3825901999953,1740.3825901999953,1740.3825901999953,1740.3825901999953,1740.3825901999953,1740.3825901999953,1742.2664183000015,['r'],1,[1.8805149999971036],[None],1742.2674068999986,1742.2799192999955,1742.2799192999955,1742.2799192999955,1743.3811711000017,5,1.0977783000053023,5,1.0977783000053023,,,,,,sub60_nb,001,2026-01-27_15h05.33.448,recognitionstage,,2025.1.1,59.59088473782529,2026-01-27 15h06.09.337836 +0530,
,,,20,20,0,8,frames\Vid8_BB_T.png,frames\Vid8_L.png,['l'],1,[3.632501100000809],[None],5,0.8483066999979201,,,,,0,20,20,7,1743.4306245999978,,23,Female,Right handed,Normal,,,,,,,,,,,,,,,,,,,,,,,,,,,,,,,,,,,,,,,,1743.424208299999,1743.4306245999978,1743.4306245999978,1743.4306245999978,1743.4306245999978,1743.4306245999978,1743.4306245999978,1747.0652233,['l'],1,[3.632501100000809],[None],1747.066104999998,1747.0802903000003,1747.0802903000003,1747.0802903000003,1747.9303666999986,5,0.8483066999979201,5,0.8483066999979201,,,,,,sub60_nb,001,2026-01-27_15h05.33.448,recognitionstage,,2025.1.1,59.59088473782529,2026-01-27 15h06.09.337836 +0530,
,,,21,21,0,13,frames\Vid13_BB_T.png,frames\Vid13_L.png,['r'],1,[6.247729199996684],[None],2,1.53042909999931,,,,,0,21,21,12,1747.9834960000007,,23,Female,Right handed,Normal,,,,,,,,,,,,,,,,,,,,,,,,,,,,,,,,,,,,,,,,1747.9647243,1747.9834960000007,1747.9834960000007,1747.9834960000007,1747.9834960000007,1747.9834960000007,1747.9834960000007,1754.2329993000021,['r'],1,[6.247729199996684],[None],1754.234250900001,1754.2465252999973,1754.2465252999973,1754.2465252999973,1755.7815619999965,2,1.53042909999931,2,1.53042909999931,,,,,,sub60_nb,001,2026-01-27_15h05.33.448,recognitionstage,,2025.1.1,59.59088473782529,2026-01-27 15h06.09.337836 +0530,
,,,22,22,0,22,frames\Vid22_EM_T.png,frames\Vid22_L.png,['l'],1,[6.231021300001885],[None],5,1.4822893000018666,,,,,0,22,22,21,1755.8161777999994,,23,Female,Right handed,Normal,,,,,,,,,,,,,,,,,,,,,,,,,,,,,,,,,,,,,,,,1755.7940576999972,1755.8161777999994,1755.8161777999994,1755.8161777999994,1755.8161777999994,1755.8161777999994,1755.8161777999994,1762.0486459999956,['l'],1,[6.231021300001885],[None],1762.0496310000017,1762.0640587000016,1762.0640587000016,1762.0640587000016,1763.5472537999958,5,1.4822893000018666,5,1.4822893000018666,,,,,,sub60_nb,001,2026-01-27_15h05.33.448,recognitionstage,,2025.1.1,59.59088473782529,2026-01-27 15h06.09.337836 +0530,
,,,23,23,0,14,frames\Vid14_BB_T.png,frames\Vid14_L.png,['r'],1,[5.777784900004917],[None],4,0.8152959999933955,,,,,0,23,23,13,1763.5974466999978,,23,Female,Right handed,Normal,,,,,,,,,,,,,,,,,,,,,,,,,,,,,,,,,,,,,,,,1763.5911676999967,1763.5974466999978,1763.5974466999978,1763.5974466999978,1763.5974466999978,1763.5974466999978,1763.5974466999978,1769.3823225000015,['r'],1,[5.777784900004917],[None],1769.3832935999963,1769.3964665999956,1769.3964665999956,1769.3964665999956,1770.2143761999978,4,0.8152959999933955,4,0.8152959999933955,,,,,,sub60_nb,001,2026-01-27_15h05.33.448,recognitionstage,,2025.1.1,59.59088473782529,2026-01-27 15h06.09.337836 +0530,
,,,24,24,0,15,frames\Vid15_BB_T.png,frames\Vid15_L.png,['r'],1,[4.69171980000101],[None],5,0.9152901000052225,,,,,0,24,24,14,1770.2835520000008,,23,Female,Right handed,Normal,,,,,,,,,,,,,,,,,,,,,,,,,,,,,,,,,,,,,,,,1770.2666922999997,1770.2835520000008,1770.2835520000008,1770.2835520000008,1770.2835520000008,1770.2835520000008,1770.2835520000008,1774.9823782999956,['r'],1,[4.69171980000101],[None],1774.9834936999978,1774.9971384000019,1774.9971384000019,1774.9971384000019,1775.914344799996,5,0.9152901000052225,5,0.9152901000052225,,,,,,sub60_nb,001,2026-01-27_15h05.33.448,recognitionstage,,2025.1.1,59.59088473782529,2026-01-27 15h06.09.337836 +0530,
,,,25,25,0,18,frames\Vid18_EM_T.png,frames\Vid18_L.png,['l'],1,[4.78522189999785],[None],5,1.0464524999988498,,,,,0,25,25,17,1775.949845199997,,23,Female,Right handed,Normal,,,,,,,,,,,,,,,,,,,,,,,,,,,,,,,,,,,,,,,,1775.9258310000005,1775.949845199997,1775.949845199997,1775.949845199997,1775.949845199997,1775.949845199997,1775.949845199997,1780.749702299996,['l'],1,[4.78522189999785],[None],1780.7512912999955,1780.7783721000014,1780.7783721000014,1780.7783721000014,1781.814345400002,5,1.0464524999988498,5,1.0464524999988498,,,,,,sub60_nb,001,2026-01-27_15h05.33.448,recognitionstage,,2025.1.1,59.59088473782529,2026-01-27 15h06.09.337836 +0530,
,,,26,26,0,11,frames\Vid11_EM_T.png,frames\Vid11_L.png,['r'],1,[2.678119100004551],[None],5,0.5963084000031813,,,,,0,26,26,10,1781.8810404999967,,23,Female,Right handed,Normal,,,,,,,,,,,,,,,,,,,,,,,,,,,,,,,,,,,,,,,,1781.8585214999985,1781.8810404999967,1781.8810404999967,1781.8810404999967,1781.8810404999967,1781.8810404999967,1781.8810404999967,1784.5668070999964,['r'],1,[2.678119100004551],[None],1784.5682308999967,1784.5956150999991,1784.5956150999991,1784.5956150999991,1785.1815893999956,5,0.5963084000031813,5,0.5963084000031813,,,,,,sub60_nb,001,2026-01-27_15h05.33.448,recognitionstage,,2025.1.1,59.59088473782529,2026-01-27 15h06.09.337836 +0530,
,,,27,27,0,12,frames\Vid12_EM_T.png,frames\Vid12_L.png,['l'],1,[5.053361500002211],[None],5,0.5152521999989403,,,,,0,27,27,11,1785.2498405000006,,23,Female,Right handed,Normal,,,,,,,,,,,,,,,,,,,,,,,,,,,,,,,,,,,,,,,,1785.2323828000008,1785.2498405000006,1785.2498405000006,1785.2498405000006,1785.2498405000006,1785.2498405000006,1785.2498405000006,1790.3154058,['l'],1,[5.053361500002211],[None],1790.316503999995,1790.3303861999957,1790.3303861999957,1790.3303861999957,1790.847065199996,5,0.5152521999989403,5,0.5152521999989403,,,,,,sub60_nb,001,2026-01-27_15h05.33.448,recognitionstage,,2025.1.1,59.59088473782529,2026-01-27 15h06.09.337836 +0530,
,,,28,28,0,39,frames\Vid39_BB_T.png,frames\Vid39_L.png,['r'],1,[5.810686600001645],[None],5,1.2490846999935457,,,,,0,28,28,38,1790.8685001999984,,23,Female,Right handed,Normal,,,,,,,,,,,,,,,,,,,,,,,,,,,,,,,,,,,,,,,,1790.8543027999985,1790.8685001999984,1790.8685001999984,1790.8685001999984,1790.8685001999984,1790.8685001999984,1790.8685001999984,1796.6815579999966,['r'],1,[5.810686600001645],[None],1796.6823436999985,1796.6970357999962,1796.6970357999962,1796.6970357999962,1797.9477269999988,5,1.2490846999935457,5,1.2490846999935457,,,,,,sub60_nb,001,2026-01-27_15h05.33.448,recognitionstage,,2025.1.1,59.59088473782529,2026-01-27 15h06.09.337836 +0530,
,,,29,29,0,23,frames\Vid23_EM_T.png,frames\Vid23_L.png,['r'],1,[3.6112795999943046],[None],4,1.1960507999974652,,,,,0,29,29,22,1797.980042999996,,23,Female,Right handed,Normal,,,,,,,,,,,,,,,,,,,,,,,,,,,,,,,,,,,,,,,,1797.9632313999973,1797.980042999996,1797.980042999996,1797.980042999996,1797.980042999996,1797.980042999996,1797.980042999996,1801.6004029999967,['r'],1,[3.6112795999943046],[None],1801.6018590999956,1801.628221699997,1801.628221699997,1801.628221699997,1802.8144711999994,4,1.1960507999974652,4,1.1960507999974652,,,,,,sub60_nb,001,2026-01-27_15h05.33.448,recognitionstage,,2025.1.1,59.59088473782529,2026-01-27 15h06.09.337836 +0530,
,,,30,30,0,27,frames\Vid27_BB_T.png,frames\Vid27_L.png,['l'],1,[2.791183799999999],[None],5,1.3163554999991902,,,,,0,30,30,26,1802.8318501999966,,23,Female,Right handed,Normal,,,,,,,,,,,,,,,,,,,,,,,,,,,,,,,,,,,,,,,,1802.8240329999971,1802.8318501999966,1802.8318501999966,1802.8318501999966,1802.8318501999966,1802.8318501999966,1802.8318501999966,1805.6313739999969,['l'],1,[2.791183799999999],[None],1805.632299099998,1805.646831799997,1805.646831799997,1805.646831799997,1806.9643775000004,5,1.3163554999991902,5,1.3163554999991902,,,,,,sub60_nb,001,2026-01-27_15h05.33.448,recognitionstage,,2025.1.1,59.59088473782529,2026-01-27 15h06.09.337836 +0530,
,,,31,31,0,4,frames\Vid4_EM_T.png,frames\Vid4_L.png,['r'],1,[11.416513300006045],[None],5,2.1644054999997024,,,,,0,31,31,3,1807.0306471000004,,23,Female,Right handed,Normal,,,,,,,,,,,,,,,,,,,,,,,,,,,,,,,,,,,,,,,,1807.0095513999986,1807.0306471000004,1807.0306471000004,1807.0306471000004,1807.0306471000004,1807.0306471000004,1807.0306471000004,1818.4492129999999,['r'],1,[11.416513300006045],[None],1818.4501367999983,1818.4632992999977,1818.4632992999977,1818.4632992999977,1820.6308408999976,5,2.1644054999997024,5,2.1644054999997024,,,,,,sub60_nb,001,2026-01-27_15h05.33.448,recognitionstage,,2025.1.1,59.59088473782529,2026-01-27 15h06.09.337836 +0530,
,,,32,32,0,1,frames\Vid1_EM_T.png,frames\Vid1_L.png,['r'],1,[4.922640600001614],[None],5,2.7156131000010646,,,,,0,32,32,0,1820.7008225999962,,23,Female,Right handed,Normal,,,,,,,,,,,,,,,,,,,,,,,,,,,,,,,,,,,,,,,,1820.680859299995,1820.7008225999962,1820.7008225999962,1820.7008225999962,1820.7008225999962,1820.7008225999962,1820.7008225999962,1825.6322043999971,['r'],1,[4.922640600001614],[None],1825.633321100002,1825.646836,1825.646836,1825.646836,1828.3642169000013,5,2.7156131000010646,5,2.7156131000010646,,,,,,sub60_nb,001,2026-01-27_15h05.33.448,recognitionstage,,2025.1.1,59.59088473782529,2026-01-27 15h06.09.337836 +0530,
,,,33,33,0,9,frames\Vid9_EM_T.png,frames\Vid9_L.png,['l'],1,[3.070028399997682],[None],5,1.6146440000011353,,,,,0,33,33,8,1828.417197099996,,23,Female,Right handed,Normal,,,,,,,,,,,,,,,,,,,,,,,,,,,,,,,,,,,,,,,,1828.4016660999987,1828.417197099996,1828.417197099996,1828.417197099996,1828.417197099996,1828.417197099996,1828.417197099996,1831.4987130000009,['l'],1,[3.070028399997682],[None],1831.4995626999953,1831.5131591999962,1831.5131591999962,1831.5131591999962,1833.1311784999998,5,1.6146440000011353,5,1.6146440000011353,,,,,,sub60_nb,001,2026-01-27_15h05.33.448,recognitionstage,,2025.1.1,59.59088473782529,2026-01-27 15h06.09.337836 +0530,
,,,34,34,0,40,frames\Vid40_EM_T.png,frames\Vid40_L.png,['r'],1,[2.832226400001673],[None],5,1.1320881999999983,,,,,0,34,34,39,1833.1509455999985,,23,Female,Right handed,Normal,,,,,,,,,,,,,,,,,,,,,,,,,,,,,,,,,,,,,,,,1833.1393876000002,1833.1509455999985,1833.1509455999985,1833.1509455999985,1833.1509455999985,1833.1509455999985,1833.1509455999985,1835.9991880000016,['r'],1,[2.832226400001673],[None],1836.000009999996,1836.0130888999993,1836.0130888999993,1836.0130888999993,1837.147409600002,5,1.1320881999999983,5,1.1320881999999983,,,,,,sub60_nb,001,2026-01-27_15h05.33.448,recognitionstage,,2025.1.1,59.59088473782529,2026-01-27 15h06.09.337836 +0530,
,,,35,35,0,36,frames\Vid36_BB_T.png,frames\Vid36_L.png,['r'],1,[2.6752804999996442],[None],5,0.7815568000005442,,,,,0,35,35,35,1837.1799602999963,,23,Female,Right handed,Normal,,,,,,,,,,,,,,,,,,,,,,,,,,,,,,,,,,,,,,,,1837.160047999998,1837.1799602999963,1837.1799602999963,1837.1799602999963,1837.1799602999963,1837.1799602999963,1837.1799602999963,1839.8654284000004,['r'],1,[2.6752804999996442],[None],1839.8664665999968,1839.8799689000007,1839.8799689000007,1839.8799689000007,1840.6646509999991,5,0.7815568000005442,5,0.7815568000005442,,,,,,sub60_nb,001,2026-01-27_15h05.33.448,recognitionstage,,2025.1.1,59.59088473782529,2026-01-27 15h06.09.337836 +0530,
,,,36,36,0,28,frames\Vid28_EM_T.png,frames\Vid28_L.png,['r'],1,[3.942304399999557],[None],5,0.7314291000002413,,,,,0,36,36,27,1840.6968962999963,,23,Female,Right handed,Normal,,,,,,,,,,,,,,,,,,,,,,,,,,,,,,,,,,,,,,,,1840.6762732999996,1840.6968962999963,1840.6968962999963,1840.6968962999963,1840.6968962999963,1840.6968962999963,1840.6968962999963,1844.6488592999958,['r'],1,[3.942304399999557],[None],1844.6497090999983,1844.6632403999974,1844.6632403999974,1844.6632403999974,1845.397626500002,5,0.7314291000002413,5,0.7314291000002413,,,,,,sub60_nb,001,2026-01-27_15h05.33.448,recognitionstage,,2025.1.1,59.59088473782529,2026-01-27 15h06.09.337836 +0530,
,,,37,37,0,5,frames\Vid5_EM_T.png,frames\Vid5_L.png,['l'],1,[3.416072800006077],[None],5,1.1994037999975262,,,,,0,37,37,4,1845.4470610999997,,23,Female,Right handed,Normal,,,,,,,,,,,,,,,,,,,,,,,,,,,,,,,,,,,,,,,,1845.4273943000007,1845.4470610999997,1845.4470610999997,1845.4470610999997,1845.4470610999997,1845.4470610999997,1845.4470610999997,1848.865598999997,['l'],1,[3.416072800006077],[None],1848.8665134999974,1848.8799061999962,1848.8799061999962,1848.8799061999962,1850.0806455999991,5,1.1994037999975262,5,1.1994037999975262,,,,,,sub60_nb,001,2026-01-27_15h05.33.448,recognitionstage,,2025.1.1,59.59088473782529,2026-01-27 15h06.09.337836 +0530,
,,,38,38,0,25,frames\Vid25_BB_T.png,frames\Vid25_L.png,['r'],1,[6.274219300001278],[None],4,1.2654331999947317,,,,,0,38,38,24,1850.1008857999987,,23,Female,Right handed,Normal,,,,,,,,,,,,,,,,,,,,,,,,,,,,,,,,,,,,,,,,1850.0903191999969,1850.1008857999987,1850.1008857999987,1850.1008857999987,1850.1008857999987,1850.1008857999987,1850.1008857999987,1856.381412900002,['r'],1,[6.274219300001278],[None],1856.3822568999967,1856.3968813999963,1856.3968813999963,1856.3968813999963,1857.6647051999971,4,1.2654331999947317,4,1.2654331999947317,,,,,,sub60_nb,001,2026-01-27_15h05.33.448,recognitionstage,,2025.1.1,59.59088473782529,2026-01-27 15h06.09.337836 +0530,
,,,39,39,0,20,frames\Vid20_EM_T.png,frames\Vid20_L.png,['r'],1,[2.8455965999964974],[None],5,0.9324793999985559,,,,,0,39,39,19,1857.681591200002,,23,Female,Right handed,Normal,,,,,,,,,,,,,,,,,,,,,,,,,,,,,,,,,,,,,,,,1857.6716310999982,1857.681591200002,1857.681591200002,1857.681591200002,1857.681591200002,1857.681591200002,1857.681591200002,1860.5321101000009,['r'],1,[2.8455965999964974],[None],1860.5329587000015,1860.5464958000011,1860.5464958000011,1860.5464958000011,1861.4809941999993,5,0.9324793999985559,5,0.9324793999985559,,,,,,sub60_nb,001,2026-01-27_15h05.33.448,recognitionstage,,2025.1.1,59.59088473782529,2026-01-27 15h06.09.337836 +0530,
,,,,,,,,,,,,,,,,,,,,,,,,,23,Female,Right handed,Normal,,,,,,,,,,,,,,,,,,,,,,,,,,,,,,,,,,,,,,,,,,,,,,,,,,,,,,,,,,,,,1861.481120700002,1861.4977488000004,1861.4977488000004,1881.481176399997,None,sub60_nb,001,2026-01-27_15h05.33.448,recognitionstage,,2025.1.1,59.59088473782529,2026-01-27 15h06.09.337836 +0530,
