path,duration,is_repeat,thisN,thisTrialN,thisRepN,movie_id,target_img,lure_img,resp.keys,resp.corr,resp.rt,resp.duration,conf_radio.response,conf_radio.rt,movie.thisRepN,movie.thisTrialN,movie.thisN,movie.thisIndex,recogloop.thisRepN,recogloop.thisTrialN,recogloop.thisN,recogloop.thisIndex,thisRow.t,notes,age,gender,handedness,vision,caffeine_2h,alcohol_smoke_12h,demographics.started,demographics.stopped,Instructions.started,text1.started,key_resp.started,Instructions.stopped,key_resp.keys,key_resp.rt,key_resp.duration,instruction_2.started,text2.started,key_resp_2.started,instruction_2.stopped,key_resp_2.keys,key_resp_2.rt,key_resp_2.duration,Videos.started,movie_2.started,vigilance_resp.started,movie_2.stopped,Videos.stopped,movie.vigilance_resp.keys,vigilance_pressed,vigilance_correct,ISI.started,text.started,ISI.stopped,text.stopped,movie.vigilance_resp.rt,movie.vigilance_resp.duration,recognition.started,text_4.started,key_resp_3.started,recognition.stopped,key_resp_3.keys,key_resp_3.rt,key_resp_3.duration,recognition_task.started,leftimage.started,rightimage.started,resp.started,frames_question.started,right_label.started,left_label.started,recognition_task.stopped,recogloop.resp.keys,recogloop.resp.corr,recogloop.resp.rt,recogloop.resp.duration,confidence.started,conf_text.started,conf_radio.started,conf_label.started,confidence.stopped,recogloop.conf_radio.response,recogloop.conf_radio.rt,confidence,confidence_rt,thank_you.started,text_6.started,key_resp_4.started,thank_you.stopped,key_resp_4.keys,participant,session,date,expName,expVersion,psychopyVersion,frameRate,expStart,...103
,,,,,,,,,,,,,,,,,,,,,,,,,21,Male,Right handed,Corrected to normal,Caffeine consumed in last 2 hours?,Alcohol or smoking in last 12 hours?,0.015489700002945028,0.017817600004491396,,,,,,,,,,,,,,,,,,,,,,,,,,,,,,,,,,,,,,,,,,,,,,,,,,,,,,,,,,,,,,sub76_NB,001,2026-01-28_12h07.50.185,recognitionstage,,2025.1.1,59.961061285224126,2026-01-28 12h08.42.095306 +0530,
,,,,,,,,,,,,,,,,,,,,,,,,,21,Male,Right handed,Corrected to normal,,,,,0.017841799999587238,0.03415360000508372,0.03415360000508372,14.486928199999966,space,14.45091610000236,None,,,,,,,,,,,,,,,,,,,,,,,,,,,,,,,,,,,,,,,,,,,,,,,,,,,,,,,sub76_NB,001,2026-01-28_12h07.50.185,recognitionstage,,2025.1.1,59.961061285224126,2026-01-28 12h08.42.095306 +0530,
,,,,,,,,,,,,,,,,,,,,,,,,,21,Male,Right handed,Corrected to normal,,,,,,,,,,,,14.487020700005814,14.501929799997015,14.501929799997015,22.86914059999981,space,8.35091470000043,None,,,,,,,,,,,,,,,,,,,,,,,,,,,,,,,,,,,,,,,,,,,,,,,,sub76_NB,001,2026-01-28_12h07.50.185,recognitionstage,,2025.1.1,59.961061285224126,2026-01-28 12h08.42.095306 +0530,
Trimmed_videos/natural_19.mp4,37,0,44,44,0,,,,,,,,,,0,44,44,21,,,,,1545.7670918999938,,21,Male,Right handed,Corrected to normal,,,,,,,,,,,,,,,,,,,1545.7140892000025,1545.7670918999938,1545.7670918999938,1583.0997319000016,1582.9488120000024,None,0,1,1583.0841135999945,1583.0997319000016,1585.5874278999981,1538.6502550000005,3.794801900003222,None,1585.5875594999961,1585.6021397000004,1585.6021397000004,1619.786787799996,space,34.171193499991205,None,,,,,,,,,,,,,,,,,,,,,,,,,,,sub76_NB,001,2026-01-28_12h07.50.185,recognitionstage,,2025.1.1,59.961061285224126,2026-01-28 12h08.42.095306 +0530,
,,,0,0,0,21,frames\Vid21_BB_T.png,frames\Vid21_L.png,['r'],0,[4.445143199991435],[None],5,5.0976448000001255,,,,,0,0,0,20,1619.8159930999973,,21,Male,Right handed,Corrected to normal,,,,,,,,,,,,,,,,,,,,,,,,,,,,,,,,,,,,,,,,1619.8074821000046,1619.8159930999973,1619.8159930999973,1619.8159930999973,1619.8159930999973,1619.8159930999973,1619.8159930999973,1624.2696864000027,['r'],0,[4.445143199991435],[None],1624.2707557999966,1624.2987547999946,1624.2987547999946,1624.2987547999946,1629.385095599995,5,5.0976448000001255,5,5.0976448000001255,,,,,,sub76_NB,001,2026-01-28_12h07.50.185,recognitionstage,,2025.1.1,59.961061285224126,2026-01-28 12h08.42.095306 +0530,
,,,1,1,0,35,frames\Vid35_EM_T.png,frames\Vid35_L.png,['l'],1,[5.757154599996284],[None],5,3.4313851000042632,,,,,0,1,1,34,1629.4159649999929,,21,Male,Right handed,Corrected to normal,,,,,,,,,,,,,,,,,,,,,,,,,,,,,,,,,,,,,,,,1629.3971072999993,1629.4159649999929,1629.4159649999929,1629.4159649999929,1629.4159649999929,1629.4159649999929,1629.4159649999929,1635.1858452000015,['l'],1,[5.757154599996284],[None],1635.1868034999934,1635.2013659999939,1635.2013659999939,1635.2013659999939,1638.6351351000048,5,3.4313851000042632,5,3.4313851000042632,,,,,,sub76_NB,001,2026-01-28_12h07.50.185,recognitionstage,,2025.1.1,59.961061285224126,2026-01-28 12h08.42.095306 +0530,
,,,2,2,0,19,frames\Vid19_BB_T.png,frames\Vid19_L.png,['l'],1,[11.78606050000235],[None],4,2.9161052999988897,,,,,0,2,2,18,1638.6671153000061,,21,Male,Right handed,Corrected to normal,,,,,,,,,,,,,,,,,,,,,,,,,,,,,,,,,,,,,,,,1638.6475892000017,1638.6671153000061,1638.6671153000061,1638.6671153000061,1638.6671153000061,1638.6671153000061,1638.6671153000061,1650.468656099998,['l'],1,[11.78606050000235],[None],1650.4694839000003,1650.484222900006,1650.484222900006,1650.484222900006,1653.401303599996,4,2.9161052999988897,4,2.9161052999988897,,,,,,sub76_NB,001,2026-01-28_12h07.50.185,recognitionstage,,2025.1.1,59.961061285224126,2026-01-28 12h08.42.095306 +0530,
,,,3,3,0,26,frames\Vid26_EM_T.png,frames\Vid26_L.png,['r'],1,[10.50708830000076],[None],5,2.332611999998335,,,,,0,3,3,25,1653.4339771999948,,21,Male,Right handed,Corrected to normal,,,,,,,,,,,,,,,,,,,,,,,,,,,,,,,,,,,,,,,,1653.4163867000025,1653.4339771999948,1653.4339771999948,1653.4339771999948,1653.4339771999948,1653.4339771999948,1653.4339771999948,1663.9517635999946,['r'],1,[10.50708830000076],[None],1663.9524566000036,1663.9671159999998,1663.9671159999998,1663.9671159999998,1666.301571899996,5,2.332611999998335,5,2.332611999998335,,,,,,sub76_NB,001,2026-01-28_12h07.50.185,recognitionstage,,2025.1.1,59.961061285224126,2026-01-28 12h08.42.095306 +0530,
,,,4,4,0,11,frames\Vid11_EM_T.png,frames\Vid11_L.png,['l'],1,[3.9896736000082456],[None],4,2.314772099998663,,,,,0,4,4,10,1666.3678805999953,,21,Male,Right handed,Corrected to normal,,,,,,,,,,,,,,,,,,,,,,,,,,,,,,,,,,,,,,,,1666.346639299998,1666.3678805999953,1666.3678805999953,1666.3678805999953,1666.3678805999953,1666.3678805999953,1666.3678805999953,1670.3694782999955,['l'],1,[3.9896736000082456],[None],1670.3704052999965,1670.3841037999955,1670.3841037999955,1670.3841037999955,1672.7014084999973,4,2.314772099998663,4,2.314772099998663,,,,,,sub76_NB,001,2026-01-28_12h07.50.185,recognitionstage,,2025.1.1,59.961061285224126,2026-01-28 12h08.42.095306 +0530,
,,,5,5,0,34,frames\Vid34_BB_T.png,frames\Vid34_L.png,['r'],1,[5.824386199994478],[None],4,2.882674600012251,,,,,0,5,5,33,1672.7327515999932,,21,Male,Right handed,Corrected to normal,,,,,,,,,,,,,,,,,,,,,,,,,,,,,,,,,,,,,,,,1672.7223999999987,1672.7327515999932,1672.7327515999932,1672.7327515999932,1672.7327515999932,1672.7327515999932,1672.7327515999932,1678.5683862000005,['r'],1,[5.824386199994478],[None],1678.569134999998,1678.5840544999955,1678.5840544999955,1678.5840544999955,1681.4679152000026,4,2.882674600012251,4,2.882674600012251,,,,,,sub76_NB,001,2026-01-28_12h07.50.185,recognitionstage,,2025.1.1,59.961061285224126,2026-01-28 12h08.42.095306 +0530,
,,,6,6,0,32,frames\Vid32_EM_T.png,frames\Vid32_L.png,['r'],1,[2.7048337000014726],[None],5,2.4814865999942413,,,,,0,6,6,31,1681.500342600004,,21,Male,Right handed,Corrected to normal,,,,,,,,,,,,,,,,,,,,,,,,,,,,,,,,,,,,,,,,1681.4789389999933,1681.500342600004,1681.500342600004,1681.500342600004,1681.500342600004,1681.500342600004,1681.500342600004,1684.2193183000054,['r'],1,[2.7048337000014726],[None],1684.220149300003,1684.2337528999924,1684.2337528999924,1684.2337528999924,1686.717861600002,5,2.4814865999942413,5,2.4814865999942413,,,,,,sub76_NB,001,2026-01-28_12h07.50.185,recognitionstage,,2025.1.1,59.961061285224126,2026-01-28 12h08.42.095306 +0530,
,,,7,7,0,24,frames\Vid24_BB_T.png,frames\Vid24_L.png,['r'],1,[5.510339799991925],[None],4,2.014952400000766,,,,,0,7,7,23,1686.7508723000064,,21,Male,Right handed,Corrected to normal,,,,,,,,,,,,,,,,,,,,,,,,,,,,,,,,,,,,,,,,1686.7293019999925,1686.7508723000064,1686.7508723000064,1686.7508723000064,1686.7508723000064,1686.7508723000064,1686.7508723000064,1692.2693364000006,['r'],1,[5.510339799991925],[None],1692.2700289000059,1692.2837400999997,1692.2837400999997,1692.2837400999997,1694.302083100003,4,2.014952400000766,4,2.014952400000766,,,,,,sub76_NB,001,2026-01-28_12h07.50.185,recognitionstage,,2025.1.1,59.961061285224126,2026-01-28 12h08.42.095306 +0530,
,,,8,8,0,9,frames\Vid9_EM_T.png,frames\Vid9_L.png,['l'],0,[13.790237099994556],[None],2,2.931677899992792,,,,,0,8,8,8,1694.3509537000064,,21,Male,Right handed,Corrected to normal,,,,,,,,,,,,,,,,,,,,,,,,,,,,,,,,,,,,,,,,1694.3398894999991,1694.3509537000064,1694.3509537000064,1694.3509537000064,1694.3509537000064,1694.3509537000064,1694.3509537000064,1708.1524756,['l'],0,[13.790237099994556],[None],1708.153218899999,1708.167398599995,1708.167398599995,1708.167398599995,1711.1021650000039,2,2.931677899992792,2,2.931677899992792,,,,,,sub76_NB,001,2026-01-28_12h07.50.185,recognitionstage,,2025.1.1,59.961061285224126,2026-01-28 12h08.42.095306 +0530,
,,,9,9,0,18,frames\Vid18_EM_T.png,frames\Vid18_L.png,['l'],1,[2.8209515000053216],[None],4,2.0321999000007054,,,,,0,9,9,17,1711.1361481000058,,21,Male,Right handed,Corrected to normal,,,,,,,,,,,,,,,,,,,,,,,,,,,,,,,,,,,,,,,,1711.1153104999976,1711.1361481000058,1711.1361481000058,1711.1361481000058,1711.1361481000058,1711.1361481000058,1711.1361481000058,1713.9685373999964,['l'],1,[2.8209515000053216],[None],1713.9692253999965,1713.984130500001,1713.984130500001,1713.984130500001,1716.0179605000012,4,2.0321999000007054,4,2.0321999000007054,,,,,,sub76_NB,001,2026-01-28_12h07.50.185,recognitionstage,,2025.1.1,59.961061285224126,2026-01-28 12h08.42.095306 +0530,
,,,10,10,0,31,frames\Vid31_EM_T.png,frames\Vid31_L.png,['l'],1,[6.889360800007125],[None],2,2.9825439999985974,,,,,0,10,10,30,1716.0357461999956,,21,Male,Right handed,Corrected to normal,,,,,,,,,,,,,,,,,,,,,,,,,,,,,,,,,,,,,,,,1716.0254567999946,1716.0357461999956,1716.0357461999956,1716.0357461999956,1716.0357461999956,1716.0357461999956,1716.0357461999956,1722.9352767999953,['l'],1,[6.889360800007125],[None],1722.9361628000042,1722.9509410000028,1722.9509410000028,1722.9509410000028,1725.9346193999954,2,2.9825439999985974,2,2.9825439999985974,,,,,,sub76_NB,001,2026-01-28_12h07.50.185,recognitionstage,,2025.1.1,59.961061285224126,2026-01-28 12h08.42.095306 +0530,
,,,11,11,0,6,frames\Vid6_BB_T.png,frames\Vid6_L.png,['l'],1,[4.156730499991681],[None],4,1.9984846000006655,,,,,0,11,11,5,1725.9843836999935,,21,Male,Right handed,Corrected to normal,,,,,,,,,,,,,,,,,,,,,,,,,,,,,,,,,,,,,,,,1725.9774677999958,1725.9843836999935,1725.9843836999935,1725.9843836999935,1725.9843836999935,1725.9843836999935,1725.9843836999935,1730.1521118999954,['l'],1,[4.156730499991681],[None],1730.152950699994,1730.1674953000038,1730.1674953000038,1730.1674953000038,1732.168823800006,4,1.9984846000006655,4,1.9984846000006655,,,,,,sub76_NB,001,2026-01-28_12h07.50.185,recognitionstage,,2025.1.1,59.961061285224126,2026-01-28 12h08.42.095306 +0530,
,,,12,12,0,17,frames\Vid17_BB_T.png,frames\Vid17_L.png,['r'],1,[6.817206699997769],[None],3,1.6987136000097962,,,,,0,12,12,16,1732.2040093999967,,21,Male,Right handed,Corrected to normal,,,,,,,,,,,,,,,,,,,,,,,,,,,,,,,,,,,,,,,,1732.1919482999947,1732.2040093999967,1732.2040093999967,1732.2040093999967,1732.2040093999967,1732.2040093999967,1732.2040093999967,1739.0355087000062,['r'],1,[6.817206699997769],[None],1739.0363586000021,1739.0508852000057,1739.0508852000057,1739.0508852000057,1740.7520858000062,3,1.6987136000097962,3,1.6987136000097962,,,,,,sub76_NB,001,2026-01-28_12h07.50.185,recognitionstage,,2025.1.1,59.961061285224126,2026-01-28 12h08.42.095306 +0530,
,,,13,13,0,8,frames\Vid8_BB_T.png,frames\Vid8_L.png,['r'],1,[7.0665646999987075],[None],4,1.9321162999985972,,,,,0,13,13,7,1740.8024888999935,,21,Male,Right handed,Corrected to normal,,,,,,,,,,,,,,,,,,,,,,,,,,,,,,,,,,,,,,,,1740.7903676999995,1740.8024888999935,1740.8024888999935,1740.8024888999935,1740.8024888999935,1740.8024888999935,1740.8024888999935,1747.8858910999988,['r'],1,[7.0665646999987075],[None],1747.886781299996,1747.9005161999958,1747.9005161999958,1747.9005161999958,1749.8345299999928,4,1.9321162999985972,4,1.9321162999985972,,,,,,sub76_NB,001,2026-01-28_12h07.50.185,recognitionstage,,2025.1.1,59.961061285224126,2026-01-28 12h08.42.095306 +0530,
,,,14,14,0,16,frames\Vid16_EM_T.png,frames\Vid16_L.png,['l'],0,[7.206020500001614],[None],3,1.6479071000067052,,,,,0,14,14,15,1749.887217399999,,21,Male,Right handed,Corrected to normal,,,,,,,,,,,,,,,,,,,,,,,,,,,,,,,,,,,,,,,,1749.8737997999997,1749.887217399999,1749.887217399999,1749.887217399999,1749.887217399999,1749.887217399999,1749.887217399999,1757.1029718000063,['l'],0,[7.206020500001614],[None],1757.1040197999973,1757.132051499997,1757.132051499997,1757.132051499997,1758.7681030999956,3,1.6479071000067052,3,1.6479071000067052,,,,,,sub76_NB,001,2026-01-28_12h07.50.185,recognitionstage,,2025.1.1,59.961061285224126,2026-01-28 12h08.42.095306 +0530,
,,,15,15,0,36,frames\Vid36_BB_T.png,frames\Vid36_L.png,['l'],1,[2.1215747999958694],[None],4,1.3642189999955008,,,,,0,15,15,35,1758.8036126999941,,21,Male,Right handed,Corrected to normal,,,,,,,,,,,,,,,,,,,,,,,,,,,,,,,,,,,,,,,,1758.7814279000013,1758.8036126999941,1758.8036126999941,1758.8036126999941,1758.8036126999941,1758.8036126999941,1758.8036126999941,1760.9361145000003,['l'],1,[2.1215747999958694],[None],1760.9376117000065,1760.9508982999978,1760.9508982999978,1760.9508982999978,1762.3184729000059,4,1.3642189999955008,4,1.3642189999955008,,,,,,sub76_NB,001,2026-01-28_12h07.50.185,recognitionstage,,2025.1.1,59.961061285224126,2026-01-28 12h08.42.095306 +0530,
,,,16,16,0,25,frames\Vid25_BB_T.png,frames\Vid25_L.png,['r'],0,[7.357363599992823],[None],4,2.030689599996549,,,,,0,16,16,24,1762.335886300003,,21,Male,Right handed,Corrected to normal,,,,,,,,,,,,,,,,,,,,,,,,,,,,,,,,,,,,,,,,1762.3279679999978,1762.335886300003,1762.335886300003,1762.335886300003,1762.335886300003,1762.335886300003,1762.335886300003,1769.702939900002,['r'],0,[7.357363599992823],[None],1769.7040044000023,1769.7174943999999,1769.7174943999999,1769.7174943999999,1771.7513104999962,4,2.030689599996549,4,2.030689599996549,,,,,,sub76_NB,001,2026-01-28_12h07.50.185,recognitionstage,,2025.1.1,59.961061285224126,2026-01-28 12h08.42.095306 +0530,
,,,17,17,0,29,frames\Vid29_BB_T.png,frames\Vid29_L.png,['l'],1,[4.5416746999981115],[None],4,2.080536599998595,,,,,0,17,17,28,1771.7836175999983,,21,Male,Right handed,Corrected to normal,,,,,,,,,,,,,,,,,,,,,,,,,,,,,,,,,,,,,,,,1771.7617160999944,1771.7836175999983,1771.7836175999983,1771.7836175999983,1771.7836175999983,1771.7836175999983,1771.7836175999983,1776.336856199996,['l'],1,[4.5416746999981115],[None],1776.3380125999975,1776.3504186999926,1776.3504186999926,1776.3504186999926,1778.4351169000001,4,2.080536599998595,4,2.080536599998595,,,,,,sub76_NB,001,2026-01-28_12h07.50.185,recognitionstage,,2025.1.1,59.961061285224126,2026-01-28 12h08.42.095306 +0530,
,,,18,18,0,7,frames\Vid7_EM_T.png,frames\Vid7_L.png,['r'],0,[3.464093000002322],[None],4,1.6491597999993246,,,,,0,18,18,6,1778.5010867999954,,21,Male,Right handed,Corrected to normal,,,,,,,,,,,,,,,,,,,,,,,,,,,,,,,,,,,,,,,,1778.478952000005,1778.5010867999954,1778.5010867999954,1778.5010867999954,1778.5010867999954,1778.5010867999954,1778.5010867999954,1781.9690114999976,['r'],0,[3.464093000002322],[None],1781.9698258999997,1781.9842252999952,1781.9842252999952,1781.9842252999952,1783.6347681000043,4,1.6491597999993246,4,1.6491597999993246,,,,,,sub76_NB,001,2026-01-28_12h07.50.185,recognitionstage,,2025.1.1,59.961061285224126,2026-01-28 12h08.42.095306 +0530,
,,,19,19,0,37,frames\Vid37_BB_T.png,frames\Vid37_L.png,['l'],1,[3.151498499995796],[None],4,1.8312490999960573,,,,,0,19,19,36,1783.6696938999958,,21,Male,Right handed,Corrected to normal,,,,,,,,,,,,,,,,,,,,,,,,,,,,,,,,,,,,,,,,1783.6458656000032,1783.6696938999958,1783.6696938999958,1783.6696938999958,1783.6696938999958,1783.6696938999958,1783.6696938999958,1786.835888600006,['l'],1,[3.151498499995796],[None],1786.8368833999994,1786.8509862999927,1786.8509862999927,1786.8509862999927,1788.6853049000056,4,1.8312490999960573,4,1.8312490999960573,,,,,,sub76_NB,001,2026-01-28_12h07.50.185,recognitionstage,,2025.1.1,59.961061285224126,2026-01-28 12h08.42.095306 +0530,
,,,20,20,0,30,frames\Vid30_EM_T.png,frames\Vid30_L.png,['r'],1,[3.3197745000070427],[None],4,1.7834373999939999,,,,,0,20,20,29,1788.7174303000065,,21,Male,Right handed,Corrected to normal,,,,,,,,,,,,,,,,,,,,,,,,,,,,,,,,,,,,,,,,1788.696048400001,1788.7174303000065,1788.7174303000065,1788.7174303000065,1788.7174303000065,1788.7174303000065,1788.7174303000065,1792.0517334000033,['r'],1,[3.3197745000070427],[None],1792.0526045000006,1792.0674270000018,1792.0674270000018,1792.0674270000018,1793.851043200004,4,1.7834373999939999,4,1.7834373999939999,,,,,,sub76_NB,001,2026-01-28_12h07.50.185,recognitionstage,,2025.1.1,59.961061285224126,2026-01-28 12h08.42.095306 +0530,
,,,21,21,0,10,frames\Vid10_BB_T.png,frames\Vid10_L.png,['r'],1,[2.3840862000070047],[None],4,1.7322952000104124,,,,,0,21,21,9,1793.9010754000046,,21,Male,Right handed,Corrected to normal,,,,,,,,,,,,,,,,,,,,,,,,,,,,,,,,,,,,,,,,1793.8938605000003,1793.9010754000046,1793.9010754000046,1793.9010754000046,1793.9010754000046,1793.9010754000046,1793.9010754000046,1796.2858663999941,['r'],1,[2.3840862000070047],[None],1796.2866734999989,1796.300571300002,1796.300571300002,1796.300571300002,1798.0344092000014,4,1.7322952000104124,4,1.7322952000104124,,,,,,sub76_NB,001,2026-01-28_12h07.50.185,recognitionstage,,2025.1.1,59.961061285224126,2026-01-28 12h08.42.095306 +0530,
,,,22,22,0,15,frames\Vid15_BB_T.png,frames\Vid15_L.png,['r'],1,[14.372940499990364],[None],3,1.9619679000024917,,,,,0,22,22,14,1798.104499299996,,21,Male,Right handed,Corrected to normal,,,,,,,,,,,,,,,,,,,,,,,,,,,,,,,,,,,,,,,,1798.0834934000013,1798.104499299996,1798.104499299996,1798.104499299996,1798.104499299996,1798.104499299996,1798.104499299996,1812.4877969999943,['r'],1,[14.372940499990364],[None],1812.489225199999,1812.5155169999925,1812.5155169999925,1812.5155169999925,1814.4689542999986,3,1.9619679000024917,3,1.9619679000024917,,,,,,sub76_NB,001,2026-01-28_12h07.50.185,recognitionstage,,2025.1.1,59.961061285224126,2026-01-28 12h08.42.095306 +0530,
,,,23,23,0,5,frames\Vid5_EM_T.png,frames\Vid5_L.png,['l'],0,[9.036189200007357],[None],2,2.197294099998544,,,,,0,23,23,4,1814.521213400003,,21,Male,Right handed,Corrected to normal,,,,,,,,,,,,,,,,,,,,,,,,,,,,,,,,,,,,,,,,1814.5004700999998,1814.521213400003,1814.521213400003,1814.521213400003,1814.521213400003,1814.521213400003,1814.521213400003,1823.5700594999944,['l'],0,[9.036189200007357],[None],1823.5711788000044,1823.5838368999976,1823.5838368999976,1823.5838368999976,1825.7843375999946,2,2.197294099998544,2,2.197294099998544,,,,,,sub76_NB,001,2026-01-28_12h07.50.185,recognitionstage,,2025.1.1,59.961061285224126,2026-01-28 12h08.42.095306 +0530,
,,,24,24,0,12,frames\Vid12_EM_T.png,frames\Vid12_L.png,['r'],1,[7.98434900000575],[None],4,2.8495785999984946,,,,,0,24,24,11,1825.8529065000039,,21,Male,Right handed,Corrected to normal,,,,,,,,,,,,,,,,,,,,,,,,,,,,,,,,,,,,,,,,1825.8285073000006,1825.8529065000039,1825.8529065000039,1825.8529065000039,1825.8529065000039,1825.8529065000039,1825.8529065000039,1833.8518731999939,['r'],1,[7.98434900000575],[None],1833.8528476999927,1833.8673425000015,1833.8673425000015,1833.8673425000015,1836.7176290999923,4,2.8495785999984946,4,2.8495785999984946,,,,,,sub76_NB,001,2026-01-28_12h07.50.185,recognitionstage,,2025.1.1,59.961061285224126,2026-01-28 12h08.42.095306 +0530,
,,,25,25,0,3,frames\Vid3_BB_T.png,frames\Vid3_L.png,['r'],1,[21.77868390000367],[None],2,4.564411900006235,,,,,0,25,25,2,1836.7706631000037,,21,Male,Right handed,Corrected to normal,,,,,,,,,,,,,,,,,,,,,,,,,,,,,,,,,,,,,,,,1836.7579610999965,1836.7706631000037,1836.7706631000037,1836.7706631000037,1836.7706631000037,1836.7706631000037,1836.7706631000037,1858.553396599993,['r'],1,[21.77868390000367],[None],1858.5542857999972,1858.5673498999968,1858.5673498999968,1858.5673498999968,1863.1345122000057,2,4.564411900006235,2,4.564411900006235,,,,,,sub76_NB,001,2026-01-28_12h07.50.185,recognitionstage,,2025.1.1,59.961061285224126,2026-01-28 12h08.42.095306 +0530,
,,,26,26,0,33,frames\Vid33_BB_T.png,frames\Vid33_L.png,['l'],1,[2.858199499998591],[None],4,2.4468032000004314,,,,,0,26,26,32,1863.1552380999929,,21,Male,Right handed,Corrected to normal,,,,,,,,,,,,,,,,,,,,,,,,,,,,,,,,,,,,,,,,1863.1437622999947,1863.1552380999929,1863.1552380999929,1863.1552380999929,1863.1552380999929,1863.1552380999929,1863.1552380999929,1866.0209245000005,['l'],1,[2.858199499998591],[None],1866.0223358999938,1866.0492999999988,1866.0492999999988,1866.0492999999988,1868.4844988999976,4,2.4468032000004314,4,2.4468032000004314,,,,,,sub76_NB,001,2026-01-28_12h07.50.185,recognitionstage,,2025.1.1,59.961061285224126,2026-01-28 12h08.42.095306 +0530,
,,,27,27,0,40,frames\Vid40_EM_T.png,frames\Vid40_L.png,['l'],1,[9.566600500009372],[None],3,2.044966999994358,,,,,0,27,27,39,1868.502819100002,,21,Male,Right handed,Corrected to normal,,,,,,,,,,,,,,,,,,,,,,,,,,,,,,,,,,,,,,,,1868.491798300005,1868.502819100002,1868.502819100002,1868.502819100002,1868.502819100002,1868.502819100002,1868.502819100002,1878.0723215000035,['l'],1,[9.566600500009372],[None],1878.073612399996,1878.0993656999926,1878.0993656999926,1878.0993656999926,1880.1344425999996,3,2.044966999994358,3,2.044966999994358,,,,,,sub76_NB,001,2026-01-28_12h07.50.185,recognitionstage,,2025.1.1,59.961061285224126,2026-01-28 12h08.42.095306 +0530,
,,,28,28,0,2,frames\Vid2_BB_T.png,frames\Vid2_L.png,['r'],1,[4.452982700007851],[None],5,1.7317638999957126,,,,,0,28,28,1,1880.184580400004,,21,Male,Right handed,Corrected to normal,,,,,,,,,,,,,,,,,,,,,,,,,,,,,,,,,,,,,,,,1880.1742290999973,1880.184580400004,1880.184580400004,1880.184580400004,1880.184580400004,1880.184580400004,1880.184580400004,1884.6521434000024,['r'],1,[4.452982700007851],[None],1884.6531247999956,1884.6674805999937,1884.6674805999937,1884.6674805999937,1886.401521599997,5,1.7317638999957126,5,1.7317638999957126,,,,,,sub76_NB,001,2026-01-28_12h07.50.185,recognitionstage,,2025.1.1,59.961061285224126,2026-01-28 12h08.42.095306 +0530,
,,,29,29,0,27,frames\Vid27_BB_T.png,frames\Vid27_L.png,['r'],1,[6.687996200009366],[None],4,1.7493605999916326,,,,,0,29,29,26,1886.4371799999935,,21,Male,Right handed,Corrected to normal,,,,,,,,,,,,,,,,,,,,,,,,,,,,,,,,,,,,,,,,1886.4141738000035,1886.4371799999935,1886.4371799999935,1886.4371799999935,1886.4371799999935,1886.4371799999935,1886.4371799999935,1893.136004400003,['r'],1,[6.687996200009366],[None],1893.1370008999947,1893.150834999993,1893.150834999993,1893.150834999993,1894.9011002000043,4,1.7493605999916326,4,1.7493605999916326,,,,,,sub76_NB,001,2026-01-28_12h07.50.185,recognitionstage,,2025.1.1,59.961061285224126,2026-01-28 12h08.42.095306 +0530,
,,,30,30,0,38,frames\Vid38_EM_T.png,frames\Vid38_L.png,['l'],0,[8.453750000000582],[None],1,2.999431599993841,,,,,0,30,30,37,1894.919364699992,,21,Male,Right handed,Corrected to normal,,,,,,,,,,,,,,,,,,,,,,,,,,,,,,,,,,,,,,,,1894.9100633000053,1894.919364699992,1894.919364699992,1894.919364699992,1894.919364699992,1894.919364699992,1894.919364699992,1903.3859450000018,['l'],0,[8.453750000000582],[None],1903.3868490000023,1903.4005134000035,1903.4005134000035,1903.4005134000035,1906.401596399999,1,2.999431599993841,1,2.999431599993841,,,,,,sub76_NB,001,2026-01-28_12h07.50.185,recognitionstage,,2025.1.1,59.961061285224126,2026-01-28 12h08.42.095306 +0530,
,,,31,31,0,22,frames\Vid22_EM_T.png,frames\Vid22_L.png,['l'],1,[3.043120300004375],[None],5,2.9322203999909107,,,,,0,31,31,21,1906.4341333000048,,21,Male,Right handed,Corrected to normal,,,,,,,,,,,,,,,,,,,,,,,,,,,,,,,,,,,,,,,,1906.4156614999956,1906.4341333000048,1906.4341333000048,1906.4341333000048,1906.4341333000048,1906.4341333000048,1906.4341333000048,1909.485994200004,['l'],1,[3.043120300004375],[None],1909.486803599997,1909.500523900002,1909.500523900002,1909.500523900002,1912.434648399998,5,2.9322203999909107,5,2.9322203999909107,,,,,,sub76_NB,001,2026-01-28_12h07.50.185,recognitionstage,,2025.1.1,59.961061285224126,2026-01-28 12h08.42.095306 +0530,
,,,32,32,0,39,frames\Vid39_BB_T.png,frames\Vid39_L.png,['r'],1,[9.184501800002181],[None],5,1.5314060000091558,,,,,0,32,32,38,1912.4528125999932,,21,Male,Right handed,Corrected to normal,,,,,,,,,,,,,,,,,,,,,,,,,,,,,,,,,,,,,,,,1912.4441857000056,1912.4528125999932,1912.4528125999932,1912.4528125999932,1912.4528125999932,1912.4528125999932,1912.4528125999932,1921.6526471999969,['r'],1,[9.184501800002181],[None],1921.6538050999952,1921.667134599993,1921.667134599993,1921.667134599993,1923.2015270999982,5,1.5314060000091558,5,1.5314060000091558,,,,,,sub76_NB,001,2026-01-28_12h07.50.185,recognitionstage,,2025.1.1,59.961061285224126,2026-01-28 12h08.42.095306 +0530,
,,,33,33,0,14,frames\Vid14_BB_T.png,frames\Vid14_L.png,['r'],1,[4.113532300005318],[None],4,1.6478634999948554,,,,,0,33,33,13,1923.2677710999997,,21,Male,Right handed,Corrected to normal,,,,,,,,,,,,,,,,,,,,,,,,,,,,,,,,,,,,,,,,1923.248047400004,1923.2677710999997,1923.2677710999997,1923.2677710999997,1923.2677710999997,1923.2677710999997,1923.2677710999997,1927.386059700002,['r'],1,[4.113532300005318],[None],1927.3869827000017,1927.4005558999925,1927.4005558999925,1927.4005558999925,1929.0520899999974,4,1.6478634999948554,4,1.6478634999948554,,,,,,sub76_NB,001,2026-01-28_12h07.50.185,recognitionstage,,2025.1.1,59.961061285224126,2026-01-28 12h08.42.095306 +0530,
,,,34,34,0,13,frames\Vid13_BB_T.png,frames\Vid13_L.png,['r'],1,[7.317234600006486],[None],2,3.2813033999991603,,,,,0,34,34,12,1929.1040453000023,,21,Male,Right handed,Corrected to normal,,,,,,,,,,,,,,,,,,,,,,,,,,,,,,,,,,,,,,,,1929.087228599994,1929.1040453000023,1929.1040453000023,1929.1040453000023,1929.1040453000023,1929.1040453000023,1929.1040453000023,1936.4359188999952,['r'],1,[7.317234600006486],[None],1936.4370389999967,1936.4508776000002,1936.4508776000002,1936.4508776000002,1939.7342631000065,2,3.2813033999991603,2,3.2813033999991603,,,,,,sub76_NB,001,2026-01-28_12h07.50.185,recognitionstage,,2025.1.1,59.961061285224126,2026-01-28 12h08.42.095306 +0530,
,,,35,35,0,28,frames\Vid28_EM_T.png,frames\Vid28_L.png,['l'],1,[2.930002399996738],[None],5,2.0637329000019236,,,,,0,35,35,27,1939.7552181000065,,21,Male,Right handed,Corrected to normal,,,,,,,,,,,,,,,,,,,,,,,,,,,,,,,,,,,,,,,,1939.7444088000047,1939.7552181000065,1939.7552181000065,1939.7552181000065,1939.7552181000065,1939.7552181000065,1939.7552181000065,1942.6870477000048,['l'],1,[2.930002399996738],[None],1942.688171300004,1942.7004641999956,1942.7004641999956,1942.7004641999956,1944.7684296999942,5,2.0637329000019236,5,2.0637329000019236,,,,,,sub76_NB,001,2026-01-28_12h07.50.185,recognitionstage,,2025.1.1,59.961061285224126,2026-01-28 12h08.42.095306 +0530,
,,,36,36,0,23,frames\Vid23_EM_T.png,frames\Vid23_L.png,['l'],1,[5.268671500001801],[None],4,1.881435600007535,,,,,0,36,36,22,1944.800524499995,,21,Male,Right handed,Corrected to normal,,,,,,,,,,,,,,,,,,,,,,,,,,,,,,,,,,,,,,,,1944.7855341999966,1944.800524499995,1944.800524499995,1944.800524499995,1944.800524499995,1944.800524499995,1944.800524499995,1950.0859364000062,['l'],1,[5.268671500001801],[None],1950.086846899998,1950.1004776000045,1950.1004776000045,1950.1004776000045,1951.9855439999956,4,1.881435600007535,4,1.881435600007535,,,,,,sub76_NB,001,2026-01-28_12h07.50.185,recognitionstage,,2025.1.1,59.961061285224126,2026-01-28 12h08.42.095306 +0530,
,,,37,37,0,1,frames\Vid1_EM_T.png,frames\Vid1_L.png,['r'],1,[6.529736900003627],[None],4,2.07998540000699,,,,,0,37,37,0,1952.051591800002,,21,Male,Right handed,Corrected to normal,,,,,,,,,,,,,,,,,,,,,,,,,,,,,,,,,,,,,,,,1952.033356400003,1952.051591800002,1952.051591800002,1952.051591800002,1952.051591800002,1952.051591800002,1952.051591800002,1958.5871143999975,['r'],1,[6.529736900003627],[None],1958.5887056999927,1958.601004199998,1958.601004199998,1958.601004199998,1960.685041699995,4,2.07998540000699,4,2.07998540000699,,,,,,sub76_NB,001,2026-01-28_12h07.50.185,recognitionstage,,2025.1.1,59.961061285224126,2026-01-28 12h08.42.095306 +0530,
,,,38,38,0,4,frames\Vid4_EM_T.png,frames\Vid4_L.png,['r'],1,[3.139239299998735],[None],4,1.8983858999999939,,,,,0,38,38,3,1960.7540623999957,,21,Male,Right handed,Corrected to normal,,,,,,,,,,,,,,,,,,,,,,,,,,,,,,,,,,,,,,,,1960.7312767999974,1960.7540623999957,1960.7540623999957,1960.7540623999957,1960.7540623999957,1960.7540623999957,1960.7540623999957,1963.903164999996,['r'],1,[3.139239299998735],[None],1963.9041729000019,1963.9172508000047,1963.9172508000047,1963.9172508000047,1965.818097299998,4,1.8983858999999939,4,1.8983858999999939,,,,,,sub76_NB,001,2026-01-28_12h07.50.185,recognitionstage,,2025.1.1,59.961061285224126,2026-01-28 12h08.42.095306 +0530,
,,,39,39,0,20,frames\Vid20_EM_T.png,frames\Vid20_L.png,['r'],1,[2.735253899998497],[None],3,2.114343400011421,,,,,0,39,39,19,1965.8538924000022,,21,Male,Right handed,Corrected to normal,,,,,,,,,,,,,,,,,,,,,,,,,,,,,,,,,,,,,,,,1965.8281889000064,1965.8538924000022,1965.8538924000022,1965.8538924000022,1965.8538924000022,1965.8538924000022,1965.8538924000022,1968.6030233000056,['r'],1,[2.735253899998497],[None],1968.6039764000016,1968.6170313000039,1968.6170313000039,1968.6170313000039,1970.7356189999991,3,2.114343400011421,3,2.114343400011421,,,,,,sub76_NB,001,2026-01-28_12h07.50.185,recognitionstage,,2025.1.1,59.961061285224126,2026-01-28 12h08.42.095306 +0530,
,,,,,,,,,,,,,,,,,,,,,,,,,21,Male,Right handed,Corrected to normal,,,,,,,,,,,,,,,,,,,,,,,,,,,,,,,,,,,,,,,,,,,,,,,,,,,,,,,,,,,,,1970.7357409999968,1970.751057100002,1970.751057100002,1990.7375484999939,None,sub76_NB,001,2026-01-28_12h07.50.185,recognitionstage,,2025.1.1,59.961061285224126,2026-01-28 12h08.42.095306 +0530,
