path,duration,is_repeat,thisN,thisTrialN,thisRepN,movie_id,target_img,lure_img,resp.keys,resp.corr,resp.rt,resp.duration,conf_radio.response,conf_radio.rt,movie.thisRepN,movie.thisTrialN,movie.thisN,movie.thisIndex,recogloop.thisRepN,recogloop.thisTrialN,recogloop.thisN,recogloop.thisIndex,thisRow.t,notes,age,gender,handedness,vision,caffeine_2h,alcohol_smoke_12h,demographics.started,demographics.stopped,Instructions.started,text1.started,key_resp.started,Instructions.stopped,key_resp.keys,key_resp.rt,key_resp.duration,instruction_2.started,text2.started,key_resp_2.started,instruction_2.stopped,key_resp_2.keys,key_resp_2.rt,key_resp_2.duration,Videos.started,movie_2.started,vigilance_resp.started,movie_2.stopped,Videos.stopped,movie.vigilance_resp.keys,vigilance_pressed,vigilance_correct,ISI.started,text.started,ISI.stopped,text.stopped,movie.vigilance_resp.rt,movie.vigilance_resp.duration,recognition.started,text_4.started,key_resp_3.started,recognition.stopped,key_resp_3.keys,key_resp_3.rt,key_resp_3.duration,recognition_task.started,leftimage.started,rightimage.started,resp.started,frames_question.started,right_label.started,left_label.started,recognition_task.stopped,recogloop.resp.keys,recogloop.resp.corr,recogloop.resp.rt,recogloop.resp.duration,confidence.started,conf_text.started,conf_radio.started,conf_label.started,confidence.stopped,recogloop.conf_radio.response,recogloop.conf_radio.rt,confidence,confidence_rt,thank_you.started,text_6.started,key_resp_4.started,thank_you.stopped,key_resp_4.keys,key_resp_4.rt,key_resp_4.duration,participant,session,date,expName,expVersion,psychopyVersion,frameRate,expStart,...105
,,,,,,,,,,,,,,,,,,,,,,,,,23,Male,Right handed,Normal,Caffeine consumed in last 2 hours?,Alcohol or smoking in last 12 hours?,0.006042699998943135,0.05081630000495352,,,,,,,,,,,,,,,,,,,,,,,,,,,,,,,,,,,,,,,,,,,,,,,,,,,,,,,,,,,,,,,,sub74_NB,001,2026-01-28_10h41.03.451,recognitionstage,,2025.1.1,59.84845174786341,2026-01-28 10h42.09.579092 +0530,
,,,,,,,,,,,,,,,,,,,,,,,,,23,Male,Right handed,Normal,,,,,0.05084320000605658,0.07309010000608396,0.07309010000608396,28.310867699998198,space,28.229052499998943,None,,,,,,,,,,,,,,,,,,,,,,,,,,,,,,,,,,,,,,,,,,,,,,,,,,,,,,,,,sub74_NB,001,2026-01-28_10h41.03.451,recognitionstage,,2025.1.1,59.84845174786341,2026-01-28 10h42.09.579092 +0530,
,,,,,,,,,,,,,,,,,,,,,,,,,23,Male,Right handed,Normal,,,,,,,,,,,,28.310956500004977,28.32646170000953,28.32646170000953,34.37765360000776,space,6.039678299988736,None,,,,,,,,,,,,,,,,,,,,,,,,,,,,,,,,,,,,,,,,,,,,,,,,,,sub74_NB,001,2026-01-28_10h41.03.451,recognitionstage,,2025.1.1,59.84845174786341,2026-01-28 10h42.09.579092 +0530,
Trimmed_videos/natural_5.mp4,33,0,44,44,0,,,,,,,,,,0,44,44,5,,,,,1537.0250835000043,,23,Male,Right handed,Normal,,,,,,,,,,,,,,,,,,,1536.9698787000088,1537.0250835000043,1537.0250835000043,1570.5912492000061,1570.442893200001,None,0,1,1570.578469,1570.5912492000061,1573.0772971999977,1573.0923099000065,4.274088400008623,None,1573.0773819000024,1573.0923099000065,1573.0923099000065,1618.209812800007,space,45.106043599997065,None,,,,,,,,,,,,,,,,,,,,,,,,,,,,,sub74_NB,001,2026-01-28_10h41.03.451,recognitionstage,,2025.1.1,59.84845174786341,2026-01-28 10h42.09.579092 +0530,
,,,0,0,0,32,frames\Vid32_EM_T.png,frames\Vid32_L.png,['r'],1,[7.19749910000246],[None],5,11.282129700004589,,,,,0,0,0,31,1618.240858300007,,23,Male,Right handed,Normal,,,,,,,,,,,,,,,,,,,,,,,,,,,,,,,,,,,,,,,,1618.2270583000063,1618.240858300007,1618.240858300007,1618.240858300007,1618.240858300007,1618.240858300007,1618.240858300007,1625.4433019999997,['r'],1,[7.19749910000246],[None],1625.444115300008,1625.4586167000089,1625.4586167000089,1625.4586167000089,1636.7421235000074,5,11.282129700004589,5,11.282129700004589,,,,,,,,sub74_NB,001,2026-01-28_10h41.03.451,recognitionstage,,2025.1.1,59.84845174786341,2026-01-28 10h42.09.579092 +0530,
,,,1,1,0,13,frames\Vid13_BB_T.png,frames\Vid13_L.png,['l'],0,[10.847667899986845],[None],3,3.878861600009259,,,,,0,1,1,12,1636.7908048999961,,23,Male,Right handed,Normal,,,,,,,,,,,,,,,,,,,,,,,,,,,,,,,,,,,,,,,,1636.7805208000063,1636.7908048999961,1636.7908048999961,1636.7908048999961,1636.7908048999961,1636.7908048999961,1636.7908048999961,1647.6455947000068,['l'],0,[10.847667899986845],[None],1647.6473738000059,1647.673307200006,1647.673307200006,1647.673307200006,1651.5422589000082,3,3.878861600009259,3,3.878861600009259,,,,,,,,sub74_NB,001,2026-01-28_10h41.03.451,recognitionstage,,2025.1.1,59.84845174786341,2026-01-28 10h42.09.579092 +0530,
,,,2,2,0,8,frames\Vid8_BB_T.png,frames\Vid8_L.png,['r'],0,[28.94263979999232],[None],3,6.047495999999228,,,,,0,2,2,7,1651.6077166000032,,23,Male,Right handed,Normal,,,,,,,,,,,,,,,,,,,,,,,,,,,,,,,,,,,,,,,,1651.5916855999967,1651.6077166000032,1651.6077166000032,1651.6077166000032,1651.6077166000032,1651.6077166000032,1651.6077166000032,1680.5607481000043,['r'],0,[28.94263979999232],[None],1680.5617625000014,1680.5748146999977,1680.5748146999977,1680.5748146999977,1686.6266034,3,6.047495999999228,3,6.047495999999228,,,,,,,,sub74_NB,001,2026-01-28_10h41.03.451,recognitionstage,,2025.1.1,59.84845174786341,2026-01-28 10h42.09.579092 +0530,
,,,3,3,0,21,frames\Vid21_BB_T.png,frames\Vid21_L.png,['l'],1,[4.840845699989586],[None],5,6.798589500001981,,,,,0,3,3,20,1686.6614249999984,,23,Male,Right handed,Normal,,,,,,,,,,,,,,,,,,,,,,,,,,,,,,,,,,,,,,,,1686.6427444,1686.6614249999984,1686.6614249999984,1686.6614249999984,1686.6614249999984,1686.6614249999984,1686.6614249999984,1691.5107475999976,['l'],1,[4.840845699989586],[None],1691.511756100008,1691.5248114999995,1691.5248114999995,1691.5248114999995,1698.3255833000003,5,6.798589500001981,5,6.798589500001981,,,,,,,,sub74_NB,001,2026-01-28_10h41.03.451,recognitionstage,,2025.1.1,59.84845174786341,2026-01-28 10h42.09.579092 +0530,
,,,4,4,0,33,frames\Vid33_BB_T.png,frames\Vid33_L.png,['r'],1,[11.199390900001163],[None],5,2.8983372999937274,,,,,0,4,4,32,1698.3588537000032,,23,Male,Right handed,Normal,,,,,,,,,,,,,,,,,,,,,,,,,,,,,,,,,,,,,,,,1698.3374118000065,1698.3588537000032,1698.3588537000032,1698.3588537000032,1698.3588537000032,1698.3588537000032,1698.3588537000032,1709.560882500009,['r'],1,[11.199390900001163],[None],1709.5619316000084,1709.5751451999968,1709.5751451999968,1709.5751451999968,1712.4765064000094,5,2.8983372999937274,5,2.8983372999937274,,,,,,,,sub74_NB,001,2026-01-28_10h41.03.451,recognitionstage,,2025.1.1,59.84845174786341,2026-01-28 10h42.09.579092 +0530,
,,,5,5,0,6,frames\Vid6_BB_T.png,frames\Vid6_L.png,['l'],1,[6.8479490000027],[None],5,4.562089400002151,,,,,0,5,5,5,1712.5426225999981,,23,Male,Right handed,Normal,,,,,,,,,,,,,,,,,,,,,,,,,,,,,,,,,,,,,,,,1712.5216063999978,1712.5426225999981,1712.5426225999981,1712.5426225999981,1712.5426225999981,1712.5426225999981,1712.5426225999981,1719.3957881999959,['l'],1,[6.8479490000027],[None],1719.3972558000096,1719.4233450000029,1719.4233450000029,1719.4233450000029,1723.9764727000002,5,4.562089400002151,5,4.562089400002151,,,,,,,,sub74_NB,001,2026-01-28_10h41.03.451,recognitionstage,,2025.1.1,59.84845174786341,2026-01-28 10h42.09.579092 +0530,
,,,6,6,0,37,frames\Vid37_BB_T.png,frames\Vid37_L.png,['l'],1,[4.03456990000268],[None],5,2.3481843000045046,,,,,0,6,6,36,1724.0116482000012,,23,Male,Right handed,Normal,,,,,,,,,,,,,,,,,,,,,,,,,,,,,,,,,,,,,,,,1723.9917190999986,1724.0116482000012,1724.0116482000012,1724.0116482000012,1724.0116482000012,1724.0116482000012,1724.0116482000012,1728.0604994000023,['l'],1,[4.03456990000268],[None],1728.0613516000012,1728.0750973999966,1728.0750973999966,1728.0750973999966,1730.4253739999986,5,2.3481843000045046,5,2.3481843000045046,,,,,,,,sub74_NB,001,2026-01-28_10h41.03.451,recognitionstage,,2025.1.1,59.84845174786341,2026-01-28 10h42.09.579092 +0530,
,,,7,7,0,15,frames\Vid15_BB_T.png,frames\Vid15_L.png,['r'],1,[3.5703684000036446],[None],5,3.965405399998417,,,,,0,7,7,14,1730.4925139999978,,23,Male,Right handed,Normal,,,,,,,,,,,,,,,,,,,,,,,,,,,,,,,,,,,,,,,,1730.472244100005,1730.4925139999978,1730.4925139999978,1730.4925139999978,1730.4925139999978,1730.4925139999978,1730.4925139999978,1734.077954399996,['r'],1,[3.5703684000036446],[None],1734.0789625000034,1734.0916460000008,1734.0916460000008,1734.0916460000008,1738.0588736000063,5,3.965405399998417,5,3.965405399998417,,,,,,,,sub74_NB,001,2026-01-28_10h41.03.451,recognitionstage,,2025.1.1,59.84845174786341,2026-01-28 10h42.09.579092 +0530,
,,,8,8,0,9,frames\Vid9_EM_T.png,frames\Vid9_L.png,['r'],1,[10.454481199994916],[None],3,5.566276300000027,,,,,0,8,8,8,1738.111741700006,,23,Male,Right handed,Normal,,,,,,,,,,,,,,,,,,,,,,,,,,,,,,,,,,,,,,,,1738.095870300007,1738.111741700006,1738.111741700006,1738.111741700006,1738.111741700006,1738.111741700006,1738.111741700006,1748.5765008000017,['r'],1,[10.454481199994916],[None],1748.5773400000035,1748.5929716999963,1748.5929716999963,1748.5929716999963,1754.1596498,3,5.566276300000027,3,5.566276300000027,,,,,,,,sub74_NB,001,2026-01-28_10h41.03.451,recognitionstage,,2025.1.1,59.84845174786341,2026-01-28 10h42.09.579092 +0530,
,,,9,9,0,31,frames\Vid31_EM_T.png,frames\Vid31_L.png,['l'],1,[5.946859199990286],[None],4,2.3813916000071913,,,,,0,9,9,30,1754.1793190000026,,23,Male,Right handed,Normal,,,,,,,,,,,,,,,,,,,,,,,,,,,,,,,,,,,,,,,,1754.1683380000031,1754.1793190000026,1754.1793190000026,1754.1793190000026,1754.1793190000026,1754.1793190000026,1754.1793190000026,1760.1274910000066,['l'],1,[5.946859199990286],[None],1760.1280049000052,1760.1418482000008,1760.1418482000008,1760.1418482000008,1762.5258500000054,4,2.3813916000071913,4,2.3813916000071913,,,,,,,,sub74_NB,001,2026-01-28_10h41.03.451,recognitionstage,,2025.1.1,59.84845174786341,2026-01-28 10h42.09.579092 +0530,
,,,10,10,0,16,frames\Vid16_EM_T.png,frames\Vid16_L.png,['l'],0,[19.190860300004715],[None],4,3.214869399991585,,,,,0,10,10,15,1762.575582000005,,23,Male,Right handed,Normal,,,,,,,,,,,,,,,,,,,,,,,,,,,,,,,,,,,,,,,,1762.5637668999989,1762.575582000005,1762.575582000005,1762.575582000005,1762.575582000005,1762.575582000005,1762.575582000005,1781.7772953999956,['l'],0,[19.190860300004715],[None],1781.7787835000054,1781.7919318000058,1781.7919318000058,1781.7919318000058,1785.009572199997,4,3.214869399991585,4,3.214869399991585,,,,,,,,sub74_NB,001,2026-01-28_10h41.03.451,recognitionstage,,2025.1.1,59.84845174786341,2026-01-28 10h42.09.579092 +0530,
,,,11,11,0,2,frames\Vid2_BB_T.png,frames\Vid2_L.png,['l'],1,[15.200769799994305],[None],4,4.049325400002999,,,,,0,11,11,1,1785.0615947000042,,23,Male,Right handed,Normal,,,,,,,,,,,,,,,,,,,,,,,,,,,,,,,,,,,,,,,,1785.0490661000076,1785.0615947000042,1785.0615947000042,1785.0615947000042,1785.0615947000042,1785.0615947000042,1785.0615947000042,1800.276059099997,['l'],1,[15.200769799994305],[None],1800.2765809999983,1800.2917087000096,1800.2917087000096,1800.2917087000096,1804.3432283000002,4,4.049325400002999,4,4.049325400002999,,,,,,,,sub74_NB,001,2026-01-28_10h41.03.451,recognitionstage,,2025.1.1,59.84845174786341,2026-01-28 10h42.09.579092 +0530,
,,,12,12,0,14,frames\Vid14_BB_T.png,frames\Vid14_L.png,['l'],1,[14.858400199998869],[None],2,1.8982774000032805,,,,,0,12,12,13,1804.411920300001,,23,Male,Right handed,Normal,,,,,,,,,,,,,,,,,,,,,,,,,,,,,,,,,,,,,,,,1804.3903780999972,1804.411920300001,1804.411920300001,1804.411920300001,1804.411920300001,1804.411920300001,1804.411920300001,1819.276714000007,['l'],1,[14.858400199998869],[None],1819.2776146999968,1819.2921007999976,1819.2921007999976,1819.2921007999976,1821.1932490000036,2,1.8982774000032805,2,1.8982774000032805,,,,,,,,sub74_NB,001,2026-01-28_10h41.03.451,recognitionstage,,2025.1.1,59.84845174786341,2026-01-28 10h42.09.579092 +0530,
,,,13,13,0,18,frames\Vid18_EM_T.png,frames\Vid18_L.png,['r'],1,[6.63470480000251],[None],4,3.7476909999968484,,,,,0,13,13,17,1821.2275984000007,,23,Male,Right handed,Normal,,,,,,,,,,,,,,,,,,,,,,,,,,,,,,,,,,,,,,,,1821.2045825000096,1821.2275984000007,1821.2275984000007,1821.2275984000007,1821.2275984000007,1821.2275984000007,1821.2275984000007,1827.877384499996,['r'],1,[6.63470480000251],[None],1827.8782534000056,1827.8917575000087,1827.8917575000087,1827.8917575000087,1831.643251600006,4,3.7476909999968484,4,3.7476909999968484,,,,,,,,sub74_NB,001,2026-01-28_10h41.03.451,recognitionstage,,2025.1.1,59.84845174786341,2026-01-28 10h42.09.579092 +0530,
,,,14,14,0,36,frames\Vid36_BB_T.png,frames\Vid36_L.png,['r'],1,[6.826684800005751],[None],4,3.4653721999929985,,,,,0,14,14,35,1831.6756583999959,,23,Male,Right handed,Normal,,,,,,,,,,,,,,,,,,,,,,,,,,,,,,,,,,,,,,,,1831.6569727000024,1831.6756583999959,1831.6756583999959,1831.6756583999959,1831.6756583999959,1831.6756583999959,1831.6756583999959,1838.5097535999957,['r'],1,[6.826684800005751],[None],1838.5105661999987,1838.525305800009,1838.525305800009,1838.525305800009,1841.9932365999994,4,3.4653721999929985,4,3.4653721999929985,,,,,,,,sub74_NB,001,2026-01-28_10h41.03.451,recognitionstage,,2025.1.1,59.84845174786341,2026-01-28 10h42.09.579092 +0530,
,,,15,15,0,25,frames\Vid25_BB_T.png,frames\Vid25_L.png,['l'],1,[5.956518099992536],[None],4,2.6150157999945804,,,,,0,15,15,24,1842.0257473999955,,23,Male,Right handed,Normal,,,,,,,,,,,,,,,,,,,,,,,,,,,,,,,,,,,,,,,,1842.0063054000057,1842.0257473999955,1842.0257473999955,1842.0257473999955,1842.0257473999955,1842.0257473999955,1842.0257473999955,1847.993074500002,['l'],1,[5.956518099992536],[None],1847.9947037999955,1848.0086774000083,1848.0086774000083,1848.0086774000083,1850.626151400007,4,2.6150157999945804,4,2.6150157999945804,,,,,,,,sub74_NB,001,2026-01-28_10h41.03.451,recognitionstage,,2025.1.1,59.84845174786341,2026-01-28 10h42.09.579092 +0530,
,,,16,16,0,22,frames\Vid22_EM_T.png,frames\Vid22_L.png,['r'],1,[8.940025699994294],[None],5,2.464471200000844,,,,,0,16,16,21,1850.658272700006,,23,Male,Right handed,Normal,,,,,,,,,,,,,,,,,,,,,,,,,,,,,,,,,,,,,,,,1850.6410417000006,1850.658272700006,1850.658272700006,1850.658272700006,1850.658272700006,1850.658272700006,1850.658272700006,1859.6111994999956,['r'],1,[8.940025699994294],[None],1859.6122623999981,1859.6252208000078,1859.6252208000078,1859.6252208000078,1862.0922817999963,5,2.464471200000844,5,2.464471200000844,,,,,,,,sub74_NB,001,2026-01-28_10h41.03.451,recognitionstage,,2025.1.1,59.84845174786341,2026-01-28 10h42.09.579092 +0530,
,,,17,17,0,4,frames\Vid4_EM_T.png,frames\Vid4_L.png,['l'],1,[13.415221899995231],[None],5,2.397615900001256,,,,,0,17,17,3,1862.1592055000074,,23,Male,Right handed,Normal,,,,,,,,,,,,,,,,,,,,,,,,,,,,,,,,,,,,,,,,1862.136780300003,1862.1592055000074,1862.1592055000074,1862.1592055000074,1862.1592055000074,1862.1592055000074,1862.1592055000074,1875.5778629999986,['l'],1,[13.415221899995231],[None],1875.5788533000014,1875.6069316000066,1875.6069316000066,1875.6069316000066,1877.992597000004,5,2.397615900001256,5,2.397615900001256,,,,,,,,sub74_NB,001,2026-01-28_10h41.03.451,recognitionstage,,2025.1.1,59.84845174786341,2026-01-28 10h42.09.579092 +0530,
,,,18,18,0,38,frames\Vid38_EM_T.png,frames\Vid38_L.png,['l'],1,[9.74682740001299],[None],3,1.796820999996271,,,,,0,18,18,37,1878.0277119999955,,23,Male,Right handed,Normal,,,,,,,,,,,,,,,,,,,,,,,,,,,,,,,,,,,,,,,,1878.0040651000018,1878.0277119999955,1878.0277119999955,1878.0277119999955,1878.0277119999955,1878.0277119999955,1878.0277119999955,1887.7784399000084,['l'],1,[9.74682740001299],[None],1887.7793955000088,1887.7917262999981,1887.7917262999981,1887.7917262999981,1889.5922733000043,3,1.796820999996271,3,1.796820999996271,,,,,,,,sub74_NB,001,2026-01-28_10h41.03.451,recognitionstage,,2025.1.1,59.84845174786341,2026-01-28 10h42.09.579092 +0530,
,,,19,19,0,20,frames\Vid20_EM_T.png,frames\Vid20_L.png,['r'],1,[4.819722600004752],[None],5,2.0807703000027686,,,,,0,19,19,19,1889.6106268000003,,23,Male,Right handed,Normal,,,,,,,,,,,,,,,,,,,,,,,,,,,,,,,,,,,,,,,,1889.5982546000014,1889.6106268000003,1889.6106268000003,1889.6106268000003,1889.6106268000003,1889.6106268000003,1889.6106268000003,1894.444553399997,['r'],1,[4.819722600004752],[None],1894.4456290999951,1894.4584924000083,1894.4584924000083,1894.4584924000083,1896.542631400007,5,2.0807703000027686,5,2.0807703000027686,,,,,,,,sub74_NB,001,2026-01-28_10h41.03.451,recognitionstage,,2025.1.1,59.84845174786341,2026-01-28 10h42.09.579092 +0530,
,,,20,20,0,35,frames\Vid35_EM_T.png,frames\Vid35_L.png,['r'],1,[5.782380299991928],[None],3,7.8980622999952175,,,,,0,20,20,34,1896.5599861000082,,23,Male,Right handed,Normal,,,,,,,,,,,,,,,,,,,,,,,,,,,,,,,,,,,,,,,,1896.550472700008,1896.5599861000082,1896.5599861000082,1896.5599861000082,1896.5599861000082,1896.5599861000082,1896.5599861000082,1902.344917399998,['r'],1,[5.782380299991928],[None],1902.3459820999997,1902.358247199998,1902.358247199998,1902.358247199998,1910.2588542000012,3,7.8980622999952175,3,7.8980622999952175,,,,,,,,sub74_NB,001,2026-01-28_10h41.03.451,recognitionstage,,2025.1.1,59.84845174786341,2026-01-28 10h42.09.579092 +0530,
,,,21,21,0,39,frames\Vid39_BB_T.png,frames\Vid39_L.png,['l'],1,[6.761200100008864],[None],4,5.647625400000834,,,,,0,21,21,38,1910.2771337000013,,23,Male,Right handed,Normal,,,,,,,,,,,,,,,,,,,,,,,,,,,,,,,,,,,,,,,,1910.266506,1910.2771337000013,1910.2771337000013,1910.2771337000013,1910.2771337000013,1910.2771337000013,1910.2771337000013,1917.0440164000029,['l'],1,[6.761200100008864],[None],1917.0449137999967,1917.058563300001,1917.058563300001,1917.058563300001,1922.7093464000063,4,5.647625400000834,4,5.647625400000834,,,,,,,,sub74_NB,001,2026-01-28_10h41.03.451,recognitionstage,,2025.1.1,59.84845174786341,2026-01-28 10h42.09.579092 +0530,
,,,22,22,0,19,frames\Vid19_BB_T.png,frames\Vid19_L.png,['r'],1,[5.616506099991966],[None],3,2.598332900000969,,,,,0,22,22,18,1922.7417204000085,,23,Male,Right handed,Normal,,,,,,,,,,,,,,,,,,,,,,,,,,,,,,,,,,,,,,,,1922.7198365000077,1922.7417204000085,1922.7417204000085,1922.7417204000085,1922.7417204000085,1922.7417204000085,1922.7417204000085,1928.3605564000027,['r'],1,[5.616506099991966],[None],1928.3613144999981,1928.374935300002,1928.374935300002,1928.374935300002,1930.9754609000083,3,2.598332900000969,3,2.598332900000969,,,,,,,,sub74_NB,001,2026-01-28_10h41.03.451,recognitionstage,,2025.1.1,59.84845174786341,2026-01-28 10h42.09.579092 +0530,
,,,23,23,0,7,frames\Vid7_EM_T.png,frames\Vid7_L.png,['r'],1,[6.188612899990403],[None],3,3.9643269999942277,,,,,0,23,23,6,1931.025683400003,,23,Male,Right handed,Normal,,,,,,,,,,,,,,,,,,,,,,,,,,,,,,,,,,,,,,,,1931.0188439000049,1931.025683400003,1931.025683400003,1931.025683400003,1931.025683400003,1931.025683400003,1931.025683400003,1937.227302600004,['r'],1,[6.188612899990403],[None],1937.2283373999962,1937.2419995000091,1937.2419995000091,1937.2419995000091,1941.2095425000007,3,3.9643269999942277,3,3.9643269999942277,,,,,,,,sub74_NB,001,2026-01-28_10h41.03.451,recognitionstage,,2025.1.1,59.84845174786341,2026-01-28 10h42.09.579092 +0530,
,,,24,24,0,10,frames\Vid10_BB_T.png,frames\Vid10_L.png,['r'],1,[3.8888447000063024],[None],4,3.0328585999959614,,,,,0,24,24,9,1941.261441499999,,23,Male,Right handed,Normal,,,,,,,,,,,,,,,,,,,,,,,,,,,,,,,,,,,,,,,,1941.2527802999975,1941.261441499999,1941.261441499999,1941.261441499999,1941.261441499999,1941.261441499999,1941.261441499999,1945.159655800002,['r'],1,[3.8888447000063024],[None],1945.1604969000036,1945.1756916000013,1945.1756916000013,1945.1756916000013,1948.2096484000067,4,3.0328585999959614,4,3.0328585999959614,,,,,,,,sub74_NB,001,2026-01-28_10h41.03.451,recognitionstage,,2025.1.1,59.84845174786341,2026-01-28 10h42.09.579092 +0530,
,,,25,25,0,3,frames\Vid3_BB_T.png,frames\Vid3_L.png,['r'],0,[8.728244900004938],[None],4,2.7142586999980267,,,,,0,25,25,2,1948.2621343000064,,23,Male,Right handed,Normal,,,,,,,,,,,,,,,,,,,,,,,,,,,,,,,,,,,,,,,,1948.2494892999966,1948.2621343000064,1948.2621343000064,1948.2621343000064,1948.2621343000064,1948.2621343000064,1948.2621343000064,1956.9942940000037,['r'],0,[8.728244900004938],[None],1956.995311999999,1957.0086470999959,1957.0086470999959,1957.0086470999959,1959.725428699996,4,2.7142586999980267,4,2.7142586999980267,,,,,,,,sub74_NB,001,2026-01-28_10h41.03.451,recognitionstage,,2025.1.1,59.84845174786341,2026-01-28 10h42.09.579092 +0530,
,,,26,26,0,23,frames\Vid23_EM_T.png,frames\Vid23_L.png,['r'],1,[4.133425200008787],[None],4,1.5476514999900246,,,,,0,26,26,22,1959.7609861000092,,23,Male,Right handed,Normal,,,,,,,,,,,,,,,,,,,,,,,,,,,,,,,,,,,,,,,,1959.7402576000022,1959.7609861000092,1959.7609861000092,1959.7609861000092,1959.7609861000092,1959.7609861000092,1959.7609861000092,1963.9106578000064,['r'],1,[4.133425200008787],[None],1963.911777900008,1963.9255916999973,1963.9255916999973,1963.9255916999973,1965.4758778999967,4,1.5476514999900246,4,1.5476514999900246,,,,,,,,sub74_NB,001,2026-01-28_10h41.03.451,recognitionstage,,2025.1.1,59.84845174786341,2026-01-28 10h42.09.579092 +0530,
,,,27,27,0,12,frames\Vid12_EM_T.png,frames\Vid12_L.png,['r'],1,[6.4318032000010135],[None],3,3.164703799993731,,,,,0,27,27,11,1965.542440899997,,23,Male,Right handed,Normal,,,,,,,,,,,,,,,,,,,,,,,,,,,,,,,,,,,,,,,,1965.5196017999988,1965.542440899997,1965.542440899997,1965.542440899997,1965.542440899997,1965.542440899997,1965.542440899997,1971.977258400002,['r'],1,[6.4318032000010135],[None],1971.9782609999966,1971.9919766999956,1971.9919766999956,1971.9919766999956,1975.1592112000071,3,3.164703799993731,3,3.164703799993731,,,,,,,,sub74_NB,001,2026-01-28_10h41.03.451,recognitionstage,,2025.1.1,59.84845174786341,2026-01-28 10h42.09.579092 +0530,
,,,28,28,0,40,frames\Vid40_EM_T.png,frames\Vid40_L.png,['r'],1,[6.474807699996745],[None],5,2.8462513999984367,,,,,0,28,28,39,1975.1797193000093,,23,Male,Right handed,Normal,,,,,,,,,,,,,,,,,,,,,,,,,,,,,,,,,,,,,,,,1975.1676450000086,1975.1797193000093,1975.1797193000093,1975.1797193000093,1975.1797193000093,1975.1797193000093,1975.1797193000093,1981.6616917000065,['r'],1,[6.474807699996745],[None],1981.662859899996,1981.6750407000072,1981.6750407000072,1981.6750407000072,1984.5257873000082,5,2.8462513999984367,5,2.8462513999984367,,,,,,,,sub74_NB,001,2026-01-28_10h41.03.451,recognitionstage,,2025.1.1,59.84845174786341,2026-01-28 10h42.09.579092 +0530,
,,,29,29,0,11,frames\Vid11_EM_T.png,frames\Vid11_L.png,['l'],1,[5.502866099996027],[None],5,1.8309236999921268,,,,,0,29,29,10,1984.5755981999973,,23,Male,Right handed,Normal,,,,,,,,,,,,,,,,,,,,,,,,,,,,,,,,,,,,,,,,1984.5665755000082,1984.5755981999973,1984.5755981999973,1984.5755981999973,1984.5755981999973,1984.5755981999973,1984.5755981999973,1990.0944195000047,['l'],1,[5.502866099996027],[None],1990.0954469999997,1990.1083589000045,1990.1083589000045,1990.1083589000045,1991.9424575000012,5,1.8309236999921268,5,1.8309236999921268,,,,,,,,sub74_NB,001,2026-01-28_10h41.03.451,recognitionstage,,2025.1.1,59.84845174786341,2026-01-28 10h42.09.579092 +0530,
,,,30,30,0,17,frames\Vid17_BB_T.png,frames\Vid17_L.png,['l'],1,[4.844626000005519],[None],5,1.5309176000009757,,,,,0,30,30,16,1991.9778998999973,,23,Male,Right handed,Normal,,,,,,,,,,,,,,,,,,,,,,,,,,,,,,,,,,,,,,,,1991.966558,1991.9778998999973,1991.9778998999973,1991.9778998999973,1991.9778998999973,1991.9778998999973,1991.9778998999973,1996.828132499999,['l'],1,[4.844626000005519],[None],1996.829289100002,1996.8415698000026,1996.8415698000026,1996.8415698000026,1998.3753935999994,5,1.5309176000009757,5,1.5309176000009757,,,,,,,,sub74_NB,001,2026-01-28_10h41.03.451,recognitionstage,,2025.1.1,59.84845174786341,2026-01-28 10h42.09.579092 +0530,
,,,31,31,0,28,frames\Vid28_EM_T.png,frames\Vid28_L.png,['r'],1,[3.987505000011879],[None],5,1.479781499991077,,,,,0,31,31,27,1998.3952235000033,,23,Male,Right handed,Normal,,,,,,,,,,,,,,,,,,,,,,,,,,,,,,,,,,,,,,,,1998.385923599999,1998.3952235000033,1998.3952235000033,1998.3952235000033,1998.3952235000033,1998.3952235000033,1998.3952235000033,2002.395434200007,['r'],1,[3.987505000011879],[None],2002.396576900006,2002.4237202000077,2002.4237202000077,2002.4237202000077,2003.8921981000021,5,1.479781499991077,5,1.479781499991077,,,,,,,,sub74_NB,001,2026-01-28_10h41.03.451,recognitionstage,,2025.1.1,59.84845174786341,2026-01-28 10h42.09.579092 +0530,
,,,32,32,0,27,frames\Vid27_BB_T.png,frames\Vid27_L.png,['r'],1,[4.175800600001821],[None],5,2.1646201999974437,,,,,0,32,32,26,2003.9105300000083,,23,Male,Right handed,Normal,,,,,,,,,,,,,,,,,,,,,,,,,,,,,,,,,,,,,,,,2003.901503800007,2003.9105300000083,2003.9105300000083,2003.9105300000083,2003.9105300000083,2003.9105300000083,2003.9105300000083,2008.0940282000083,['r'],1,[4.175800600001821],[None],2008.0951199999981,2008.108952399998,2008.108952399998,2008.108952399998,2010.276308600005,5,2.1646201999974437,5,2.1646201999974437,,,,,,,,sub74_NB,001,2026-01-28_10h41.03.451,recognitionstage,,2025.1.1,59.84845174786341,2026-01-28 10h42.09.579092 +0530,
,,,33,33,0,30,frames\Vid30_EM_T.png,frames\Vid30_L.png,['r'],1,[12.170105200013495],[None],2,2.3327142000052845,,,,,0,33,33,29,2010.3081841999956,,23,Male,Right handed,Normal,,,,,,,,,,,,,,,,,,,,,,,,,,,,,,,,,,,,,,,,2010.2866332999984,2010.3081841999956,2010.3081841999956,2010.3081841999956,2010.3081841999956,2010.3081841999956,2010.3081841999956,2022.4933809000067,['r'],1,[12.170105200013495],[None],2022.4938934999955,2022.5086370000063,2022.5086370000063,2022.5086370000063,2024.8429402000038,2,2.3327142000052845,2,2.3327142000052845,,,,,,,,sub74_NB,001,2026-01-28_10h41.03.451,recognitionstage,,2025.1.1,59.84845174786341,2026-01-28 10h42.09.579092 +0530,
,,,34,34,0,26,frames\Vid26_EM_T.png,frames\Vid26_L.png,['r'],1,[7.5474027000018395],[None],5,2.8983331999916118,,,,,0,34,34,25,2024.8749468000024,,23,Male,Right handed,Normal,,,,,,,,,,,,,,,,,,,,,,,,,,,,,,,,,,,,,,,,2024.859592000008,2024.8749468000024,2024.8749468000024,2024.8749468000024,2024.8749468000024,2024.8749468000024,2024.8749468000024,2032.4272310000088,['r'],1,[7.5474027000018395],[None],2032.4279973000084,2032.441856400008,2032.441856400008,2032.441856400008,2035.3425442000007,5,2.8983331999916118,5,2.8983331999916118,,,,,,,,sub74_NB,001,2026-01-28_10h41.03.451,recognitionstage,,2025.1.1,59.84845174786341,2026-01-28 10h42.09.579092 +0530,
,,,35,35,0,24,frames\Vid24_BB_T.png,frames\Vid24_L.png,['l'],1,[5.855010699990089],[None],4,3.2312487000017427,,,,,0,35,35,23,2035.3753586999956,,23,Male,Right handed,Normal,,,,,,,,,,,,,,,,,,,,,,,,,,,,,,,,,,,,,,,,2035.357177400001,2035.3753586999956,2035.3753586999956,2035.3753586999956,2035.3753586999956,2035.3753586999956,2035.3753586999956,2041.243762500002,['l'],1,[5.855010699990089],[None],2041.2446559999953,2041.2588480999984,2041.2588480999984,2041.2588480999984,2044.4932008000033,4,3.2312487000017427,4,3.2312487000017427,,,,,,,,sub74_NB,001,2026-01-28_10h41.03.451,recognitionstage,,2025.1.1,59.84845174786341,2026-01-28 10h42.09.579092 +0530,
,,,36,36,0,29,frames\Vid29_BB_T.png,frames\Vid29_L.png,['l'],1,[5.921034500002861],[None],4,2.9810877999989316,,,,,0,36,36,28,2044.5252760000003,,23,Male,Right handed,Normal,,,,,,,,,,,,,,,,,,,,,,,,,,,,,,,,,,,,,,,,2044.5078513000044,2044.5252760000003,2044.5252760000003,2044.5252760000003,2044.5252760000003,2044.5252760000003,2044.5252760000003,2050.4605444000044,['l'],1,[5.921034500002861],[None],2050.461733899996,2050.4752633000026,2050.4752633000026,2050.4752633000026,2053.4600452000013,4,2.9810877999989316,4,2.9810877999989316,,,,,,,,sub74_NB,001,2026-01-28_10h41.03.451,recognitionstage,,2025.1.1,59.84845174786341,2026-01-28 10h42.09.579092 +0530,
,,,37,37,0,34,frames\Vid34_BB_T.png,frames\Vid34_L.png,['r'],1,[7.4586097999999765],[None],3,3.7817632999940543,,,,,0,37,37,33,2053.4918330000073,,23,Male,Right handed,Normal,,,,,,,,,,,,,,,,,,,,,,,,,,,,,,,,,,,,,,,,2053.471168200005,2053.4918330000073,2053.4918330000073,2053.4918330000073,2053.4918330000073,2053.4918330000073,2053.4918330000073,2060.9603063999966,['r'],1,[7.4586097999999765],[None],2060.9612867999967,2060.9753647000034,2060.9753647000034,2060.9753647000034,2064.7590679999994,3,3.7817632999940543,3,3.7817632999940543,,,,,,,,sub74_NB,001,2026-01-28_10h41.03.451,recognitionstage,,2025.1.1,59.84845174786341,2026-01-28 10h42.09.579092 +0530,
,,,38,38,0,5,frames\Vid5_EM_T.png,frames\Vid5_L.png,['l'],1,[4.005591299996013],[None],4,2.064728900004411,,,,,0,38,38,4,2064.8088016999973,,23,Male,Right handed,Normal,,,,,,,,,,,,,,,,,,,,,,,,,,,,,,,,,,,,,,,,2064.7894304000074,2064.8088016999973,2064.8088016999973,2064.8088016999973,2064.8088016999973,2064.8088016999973,2064.8088016999973,2068.827533200005,['l'],1,[4.005591299996013],[None],2068.828464799997,2068.8416182000074,2068.8416182000074,2068.8416182000074,2070.9092128000048,4,2.064728900004411,4,2.064728900004411,,,,,,,,sub74_NB,001,2026-01-28_10h41.03.451,recognitionstage,,2025.1.1,59.84845174786341,2026-01-28 10h42.09.579092 +0530,
,,,39,39,0,1,frames\Vid1_EM_T.png,frames\Vid1_L.png,['r'],1,[3.316939700001967],[None],5,4.81408399999782,,,,,0,39,39,0,2070.977700999996,,23,Male,Right handed,Normal,,,,,,,,,,,,,,,,,,,,,,,,,,,,,,,,,,,,,,,,2070.956384300007,2070.977700999996,2070.977700999996,2070.977700999996,2070.977700999996,2070.977700999996,2070.977700999996,2074.2953107000067,['r'],1,[3.316939700001967],[None],2074.2964794,2074.3233582999965,2074.3233582999965,2074.3233582999965,2079.126000300006,5,4.81408399999782,5,4.81408399999782,,,,,,,,sub74_NB,001,2026-01-28_10h41.03.451,recognitionstage,,2025.1.1,59.84845174786341,2026-01-28 10h42.09.579092 +0530,
,,,,,,,,,,,,,,,,,,,,,,,,,23,Male,Right handed,Normal,,,,,,,,,,,,,,,,,,,,,,,,,,,,,,,,,,,,,,,,,,,,,,,,,,,,,,,,,,,,,2079.1261201000016,2079.1440611,2079.1440611,2084.777157100005,space,5.6303138000075705,None,sub74_NB,001,2026-01-28_10h41.03.451,recognitionstage,,2025.1.1,59.84845174786341,2026-01-28 10h42.09.579092 +0530,
