path,duration,is_repeat,thisN,thisTrialN,thisRepN,movie_id,target_img,lure_img,resp.keys,resp.corr,resp.rt,resp.duration,conf_radio.response,conf_radio.rt,movie.thisRepN,movie.thisTrialN,movie.thisN,movie.thisIndex,recogloop.thisRepN,recogloop.thisTrialN,recogloop.thisN,recogloop.thisIndex,thisRow.t,notes,age,gender,handedness,vision,caffeine_2h,alcohol_smoke_12h,demographics.started,demographics.stopped,Instructions.started,text1.started,key_resp.started,Instructions.stopped,key_resp.keys,key_resp.rt,key_resp.duration,instruction_2.started,text2.started,key_resp_2.started,instruction_2.stopped,key_resp_2.keys,key_resp_2.rt,key_resp_2.duration,Videos.started,movie_2.started,vigilance_resp.started,movie_2.stopped,Videos.stopped,movie.vigilance_resp.keys,vigilance_pressed,vigilance_correct,ISI.started,text.started,text.stopped,ISI.stopped,movie.vigilance_resp.rt,movie.vigilance_resp.duration,recognition.started,text_4.started,key_resp_3.started,recognition.stopped,key_resp_3.keys,key_resp_3.rt,key_resp_3.duration,recognition_task.started,leftimage.started,rightimage.started,resp.started,frames_question.started,right_label.started,left_label.started,recognition_task.stopped,recogloop.resp.keys,recogloop.resp.corr,recogloop.resp.rt,recogloop.resp.duration,confidence.started,conf_text.started,conf_radio.started,conf_label.started,confidence.stopped,recogloop.conf_radio.response,recogloop.conf_radio.rt,confidence,confidence_rt,thank_you.started,text_6.started,key_resp_4.started,thank_you.stopped,key_resp_4.keys,key_resp_4.rt,key_resp_4.duration,participant,session,date,expName,expVersion,psychopyVersion,frameRate,expStart,...105
,,,,,,,,,,,,,,,,,,,,,,,,,20,Female,Right handed,Uncorrected vision difficulty,Caffeine consumed in last 2 hours?,Alcohol or smoking in last 12 hours?,0.007000199984759092,0.009385199984535575,,,,,,,,,,,,,,,,,,,,,,,,,,,,,,,,,,,,,,,,,,,,,,,,,,,,,,,,,,,,,,,,sub77_NB,001,2026-01-28_14h56.40.055,recognitionstage,,2025.1.1,59.98375639728381,2026-01-28 14h57.10.120766 +0530,
,,,,,,,,,,,,,,,,,,,,,,,,,20,Female,Right handed,Uncorrected vision difficulty,,,,,0.009406199998920783,0.026128400000743568,0.026128400000743568,8.39522420000867,space,8.362205599987647,None,,,,,,,,,,,,,,,,,,,,,,,,,,,,,,,,,,,,,,,,,,,,,,,,,,,,,,,,,sub77_NB,001,2026-01-28_14h56.40.055,recognitionstage,,2025.1.1,59.98375639728381,2026-01-28 14h57.10.120766 +0530,
,,,,,,,,,,,,,,,,,,,,,,,,,20,Female,Right handed,Uncorrected vision difficulty,,,,,,,,,,,,8.395278799987864,8.409688199986704,8.409688199986704,16.7282436999958,space,8.314496899984078,None,,,,,,,,,,,,,,,,,,,,,,,,,,,,,,,,,,,,,,,,,,,,,,,,,,sub77_NB,001,2026-01-28_14h56.40.055,recognitionstage,,2025.1.1,59.98375639728381,2026-01-28 14h57.10.120766 +0530,
Trimmed_videos/natural_14.mp4,25,0,44,44,0,,,,,,,,,,0,44,44,15,,,,,1510.8426256999956,,20,Female,Right handed,Uncorrected vision difficulty,,,,,,,,,,,,,,,,,,,1510.7880145999952,1510.8426256999956,1510.8426256999956,1536.2419586000033,1536.0900434000068,None,0,1,1536.2256967999856,1536.2419586000033,1510.8426256999956,1538.7289578999917,1.3425369000178762,None,1538.729091599991,1538.7440051999874,1538.7440051999874,1567.9108871000062,space,29.164442100009182,None,,,,,,,,,,,,,,,,,,,,,,,,,,,,,sub77_NB,001,2026-01-28_14h56.40.055,recognitionstage,,2025.1.1,59.98375639728381,2026-01-28 14h57.10.120766 +0530,
,,,0,0,0,26,frames\Vid26_EM_T.png,frames\Vid26_L.png,['l'],1,[3.110899999999674],[None],4,7.132014000002528,,,,,0,0,0,25,1567.9414281999925,,20,Female,Right handed,Uncorrected vision difficulty,,,,,,,,,,,,,,,,,,,,,,,,,,,,,,,,,,,,,,,,1567.93329429999,1567.9414281999925,1567.9414281999925,1567.9414281999925,1567.9414281999925,1567.9414281999925,1567.9414281999925,1571.0612473000074,['l'],1,[3.110899999999674],[None],1571.061889899982,1571.0756446000014,1571.0756446000014,1571.0756446000014,1578.2108049999806,4,7.132014000002528,4,7.132014000002528,,,,,,,,sub77_NB,001,2026-01-28_14h56.40.055,recognitionstage,,2025.1.1,59.98375639728381,2026-01-28 14h57.10.120766 +0530,
,,,1,1,0,8,frames\Vid8_BB_T.png,frames\Vid8_L.png,['r'],1,[21.393400500004645],[None],4,3.216375499992864,,,,,0,1,1,7,1578.2749616999936,,20,Female,Right handed,Uncorrected vision difficulty,,,,,,,,,,,,,,,,,,,,,,,,,,,,,,,,,,,,,,,,1578.2566938999807,1578.2749616999936,1578.2749616999936,1578.2749616999936,1578.2749616999936,1578.2749616999936,1578.2749616999936,1599.676935800002,['r'],1,[21.393400500004645],[None],1599.67768969998,1599.6929203000036,1599.6929203000036,1599.6929203000036,1602.9105681999936,4,3.216375499992864,4,3.216375499992864,,,,,,,,sub77_NB,001,2026-01-28_14h56.40.055,recognitionstage,,2025.1.1,59.98375639728381,2026-01-28 14h57.10.120766 +0530,
,,,2,2,0,35,frames\Vid35_EM_T.png,frames\Vid35_L.png,['l'],1,[3.52687750000041],[None],5,1.8970257999899331,,,,,0,2,2,34,1602.9416717999848,,20,Female,Right handed,Uncorrected vision difficulty,,,,,,,,,,,,,,,,,,,,,,,,,,,,,,,,,,,,,,,,1602.9319457999954,1602.9416717999848,1602.9416717999848,1602.9416717999848,1602.9416717999848,1602.9416717999848,1602.9416717999848,1606.4791710999853,['l'],1,[3.52687750000041],[None],1606.4805964999832,1606.492999899987,1606.492999899987,1606.492999899987,1608.39457579999,5,1.8970257999899331,5,1.8970257999899331,,,,,,,,sub77_NB,001,2026-01-28_14h56.40.055,recognitionstage,,2025.1.1,59.98375639728381,2026-01-28 14h57.10.120766 +0530,
,,,3,3,0,31,frames\Vid31_EM_T.png,frames\Vid31_L.png,['r'],1,[2.7696399000124075],[None],5,1.3649763999856077,,,,,0,3,3,30,1608.4266963999835,,20,Female,Right handed,Uncorrected vision difficulty,,,,,,,,,,,,,,,,,,,,,,,,,,,,,,,,,,,,,,,,1608.4072971999994,1608.4266963999835,1608.4266963999835,1608.4266963999835,1608.4266963999835,1608.4266963999835,1608.4266963999835,1611.2120816999814,['r'],1,[2.7696399000124075],[None],1611.2129813999927,1611.226106099988,1611.226106099988,1611.226106099988,1612.59351169999,5,1.3649763999856077,5,1.3649763999856077,,,,,,,,sub77_NB,001,2026-01-28_14h56.40.055,recognitionstage,,2025.1.1,59.98375639728381,2026-01-28 14h57.10.120766 +0530,
,,,4,4,0,21,frames\Vid21_BB_T.png,frames\Vid21_L.png,['r'],1,[6.75475120000192],[None],5,1.3311595999985002,,,,,0,4,4,20,1612.6256984999927,,20,Female,Right handed,Uncorrected vision difficulty,,,,,,,,,,,,,,,,,,,,,,,,,,,,,,,,,,,,,,,,1612.6056905000005,1612.6256984999927,1612.6256984999927,1612.6256984999927,1612.6256984999927,1612.6256984999927,1612.6256984999927,1619.394640399987,['r'],1,[6.75475120000192],[None],1619.3957406999834,1619.4095076000085,1619.4095076000085,1619.4095076000085,1620.744183999981,5,1.3311595999985002,5,1.3311595999985002,,,,,,,,sub77_NB,001,2026-01-28_14h56.40.055,recognitionstage,,2025.1.1,59.98375639728381,2026-01-28 14h57.10.120766 +0530,
,,,5,5,0,28,frames\Vid28_EM_T.png,frames\Vid28_L.png,['r'],1,[4.260169399989536],[None],5,1.29923519998556,,,,,0,5,5,27,1620.7762929000019,,20,Female,Right handed,Uncorrected vision difficulty,,,,,,,,,,,,,,,,,,,,,,,,,,,,,,,,,,,,,,,,1620.756998900004,1620.7762929000019,1620.7762929000019,1620.7762929000019,1620.7762929000019,1620.7762929000019,1620.7762929000019,1625.0443261000037,['r'],1,[4.260169399989536],[None],1625.0451542999945,1625.0596643000026,1625.0596643000026,1625.0596643000026,1626.3608620000014,5,1.29923519998556,5,1.29923519998556,,,,,,,,sub77_NB,001,2026-01-28_14h56.40.055,recognitionstage,,2025.1.1,59.98375639728381,2026-01-28 14h57.10.120766 +0530,
,,,6,6,0,18,frames\Vid18_EM_T.png,frames\Vid18_L.png,['r'],1,[3.6438121999963187],[None],5,1.098407400015276,,,,,0,6,6,17,1626.392548999982,,20,Female,Right handed,Uncorrected vision difficulty,,,,,,,,,,,,,,,,,,,,,,,,,,,,,,,,,,,,,,,,1626.372677699983,1626.392548999982,1626.392548999982,1626.392548999982,1626.392548999982,1626.392548999982,1626.392548999982,1630.0446028999868,['r'],1,[3.6438121999963187],[None],1630.045427200006,1630.0592061000061,1630.0592061000061,1630.0592061000061,1631.1597016000014,5,1.098407400015276,5,1.098407400015276,,,,,,,,sub77_NB,001,2026-01-28_14h56.40.055,recognitionstage,,2025.1.1,59.98375639728381,2026-01-28 14h57.10.120766 +0530,
,,,7,7,0,19,frames\Vid19_BB_T.png,frames\Vid19_L.png,['l'],1,[9.23458620000747],[None],4,3.0309666999964975,,,,,0,7,7,18,1631.1779969999916,,20,Female,Right handed,Uncorrected vision difficulty,,,,,,,,,,,,,,,,,,,,,,,,,,,,,,,,,,,,,,,,1631.170469899982,1631.1779969999916,1631.1779969999916,1631.1779969999916,1631.1779969999916,1631.1779969999916,1631.1779969999916,1640.4281162999978,['l'],1,[9.23458620000747],[None],1640.4292483000027,1640.442762999999,1640.442762999999,1640.442762999999,1643.477172199986,4,3.0309666999964975,4,3.0309666999964975,,,,,,,,sub77_NB,001,2026-01-28_14h56.40.055,recognitionstage,,2025.1.1,59.98375639728381,2026-01-28 14h57.10.120766 +0530,
,,,8,8,0,16,frames\Vid16_EM_T.png,frames\Vid16_L.png,['l'],1,[7.509718699991936],[None],4,1.0645610000065062,,,,,0,8,8,15,1643.5267766999896,,20,Female,Right handed,Uncorrected vision difficulty,,,,,,,,,,,,,,,,,,,,,,,,,,,,,,,,,,,,,,,,1643.5166633999906,1643.5267766999896,1643.5267766999896,1643.5267766999896,1643.5267766999896,1643.5267766999896,1643.5267766999896,1651.0450566000072,['l'],1,[7.509718699991936],[None],1651.0459949999931,1651.0593010000011,1651.0593010000011,1651.0593010000011,1652.1269288999902,4,1.0645610000065062,4,1.0645610000065062,,,,,,,,sub77_NB,001,2026-01-28_14h56.40.055,recognitionstage,,2025.1.1,59.98375639728381,2026-01-28 14h57.10.120766 +0530,
,,,9,9,0,1,frames\Vid1_EM_T.png,frames\Vid1_L.png,['r'],1,[4.47226939999382],[None],5,2.032086100021843,,,,,0,9,9,0,1652.1961930999823,,20,Female,Right handed,Uncorrected vision difficulty,,,,,,,,,,,,,,,,,,,,,,,,,,,,,,,,,,,,,,,,1652.1765733000066,1652.1961930999823,1652.1961930999823,1652.1961930999823,1652.1961930999823,1652.1961930999823,1652.1961930999823,1656.6778158000088,['r'],1,[4.47226939999382],[None],1656.6785018999944,1656.6925372999976,1656.6925372999976,1656.6925372999976,1658.7271088999987,5,2.032086100021843,5,2.032086100021843,,,,,,,,sub77_NB,001,2026-01-28_14h56.40.055,recognitionstage,,2025.1.1,59.98375639728381,2026-01-28 14h57.10.120766 +0530,
,,,10,10,0,39,frames\Vid39_BB_T.png,frames\Vid39_L.png,['l'],1,[4.67282000000705],[None],5,0.9977844999812078,,,,,0,10,10,38,1658.747736099991,,20,Female,Right handed,Uncorrected vision difficulty,,,,,,,,,,,,,,,,,,,,,,,,,,,,,,,,,,,,,,,,1658.7359162000066,1658.747736099991,1658.747736099991,1658.747736099991,1658.747736099991,1658.747736099991,1658.747736099991,1663.4283335999935,['l'],1,[4.67282000000705],[None],1663.4294787999825,1663.4430266999989,1663.4430266999989,1663.4430266999989,1664.4436575,5,0.9977844999812078,5,0.9977844999812078,,,,,,,,sub77_NB,001,2026-01-28_14h56.40.055,recognitionstage,,2025.1.1,59.98375639728381,2026-01-28 14h57.10.120766 +0530,
,,,11,11,0,3,frames\Vid3_BB_T.png,frames\Vid3_L.png,['r'],1,[4.039476799982367],[None],5,0.9782870000053663,,,,,0,11,11,2,1664.4932946999907,,20,Female,Right handed,Uncorrected vision difficulty,,,,,,,,,,,,,,,,,,,,,,,,,,,,,,,,,,,,,,,,1664.4826361000014,1664.4932946999907,1664.4932946999907,1664.4932946999907,1664.4932946999907,1664.4932946999907,1664.4932946999907,1668.5473389999825,['r'],1,[4.039476799982367],[None],1668.5489725999942,1668.5745192999893,1668.5745192999893,1668.5745192999893,1669.543492900004,5,0.9782870000053663,5,0.9782870000053663,,,,,,,,sub77_NB,001,2026-01-28_14h56.40.055,recognitionstage,,2025.1.1,59.98375639728381,2026-01-28 14h57.10.120766 +0530,
,,,12,12,0,7,frames\Vid7_EM_T.png,frames\Vid7_L.png,['l'],1,[3.3775606999988668],[None],5,1.0970232999825384,,,,,0,12,12,6,1669.595596900006,,20,Female,Right handed,Uncorrected vision difficulty,,,,,,,,,,,,,,,,,,,,,,,,,,,,,,,,,,,,,,,,1669.5857414999919,1669.595596900006,1669.595596900006,1669.595596900006,1669.595596900006,1669.595596900006,1669.595596900006,1672.9789168999996,['l'],1,[3.3775606999988668],[None],1672.9802308999933,1672.9925899000082,1672.9925899000082,1672.9925899000082,1674.093664199987,5,1.0970232999825384,5,1.0970232999825384,,,,,,,,sub77_NB,001,2026-01-28_14h56.40.055,recognitionstage,,2025.1.1,59.98375639728381,2026-01-28 14h57.10.120766 +0530,
,,,13,13,0,29,frames\Vid29_BB_T.png,frames\Vid29_L.png,['r'],1,[4.307872499979567],[None],5,0.9641941000008956,,,,,0,13,13,28,1674.128586100007,,20,Female,Right handed,Uncorrected vision difficulty,,,,,,,,,,,,,,,,,,,,,,,,,,,,,,,,,,,,,,,,1674.1047185999923,1674.128586100007,1674.128586100007,1674.128586100007,1674.128586100007,1674.128586100007,1674.128586100007,1678.4454626000079,['r'],1,[4.307872499979567],[None],1678.446535199997,1678.4746038999874,1678.4746038999874,1678.4746038999874,1679.4268133000005,5,0.9641941000008956,5,0.9641941000008956,,,,,,,,sub77_NB,001,2026-01-28_14h56.40.055,recognitionstage,,2025.1.1,59.98375639728381,2026-01-28 14h57.10.120766 +0530,
,,,14,14,0,22,frames\Vid22_EM_T.png,frames\Vid22_L.png,['l'],1,[2.5690099999774247],[None],5,1.1478724000044167,,,,,0,14,14,21,1679.4594194999954,,20,Female,Right handed,Uncorrected vision difficulty,,,,,,,,,,,,,,,,,,,,,,,,,,,,,,,,,,,,,,,,1679.4399698000052,1679.4594194999954,1679.4594194999954,1679.4594194999954,1679.4594194999954,1679.4594194999954,1679.4594194999954,1682.0449190000072,['l'],1,[2.5690099999774247],[None],1682.0457047999953,1682.0592316999973,1682.0592316999973,1682.0592316999973,1683.2107959999994,5,1.1478724000044167,5,1.1478724000044167,,,,,,,,sub77_NB,001,2026-01-28_14h56.40.055,recognitionstage,,2025.1.1,59.98375639728381,2026-01-28 14h57.10.120766 +0530,
,,,15,15,0,15,frames\Vid15_BB_T.png,frames\Vid15_L.png,['l'],1,[4.103651700017508],[None],5,1.8314456999942195,,,,,0,15,15,14,1683.2767639999802,,20,Female,Right handed,Uncorrected vision difficulty,,,,,,,,,,,,,,,,,,,,,,,,,,,,,,,,,,,,,,,,1683.25902279999,1683.2767639999802,1683.2767639999802,1683.2767639999802,1683.2767639999802,1683.2767639999802,1683.2767639999802,1687.395097200002,['l'],1,[4.103651700017508],[None],1687.396003300004,1687.4090796999808,1687.4090796999808,1687.4090796999808,1689.2434059999941,5,1.8314456999942195,5,1.8314456999942195,,,,,,,,sub77_NB,001,2026-01-28_14h56.40.055,recognitionstage,,2025.1.1,59.98375639728381,2026-01-28 14h57.10.120766 +0530,
,,,16,16,0,32,frames\Vid32_EM_T.png,frames\Vid32_L.png,['l'],1,[3.6216198000183795],[None],5,1.0655011000053491,,,,,0,16,16,31,1689.2787639999879,,20,Female,Right handed,Uncorrected vision difficulty,,,,,,,,,,,,,,,,,,,,,,,,,,,,,,,,,,,,,,,,1689.2546602000075,1689.2787639999879,1689.2787639999879,1689.2787639999879,1689.2787639999879,1689.2787639999879,1689.2787639999879,1692.9106735999812,['l'],1,[3.6216198000183795],[None],1692.911464600009,1692.926493499981,1692.926493499981,1692.926493499981,1693.9935843999847,5,1.0655011000053491,5,1.0655011000053491,,,,,,,,sub77_NB,001,2026-01-28_14h56.40.055,recognitionstage,,2025.1.1,59.98375639728381,2026-01-28 14h57.10.120766 +0530,
,,,17,17,0,34,frames\Vid34_BB_T.png,frames\Vid34_L.png,['r'],1,[4.130468500021379],[None],5,1.148707700020168,,,,,0,17,17,33,1694.0260781999968,,20,Female,Right handed,Uncorrected vision difficulty,,,,,,,,,,,,,,,,,,,,,,,,,,,,,,,,,,,,,,,,1694.0048222999903,1694.0260781999968,1694.0260781999968,1694.0260781999968,1694.0260781999968,1694.0260781999968,1694.0260781999968,1698.161188099999,['r'],1,[4.130468500021379],[None],1698.1621949999826,1698.176167800004,1698.176167800004,1698.176167800004,1699.326944200002,5,1.148707700020168,5,1.148707700020168,,,,,,,,sub77_NB,001,2026-01-28_14h56.40.055,recognitionstage,,2025.1.1,59.98375639728381,2026-01-28 14h57.10.120766 +0530,
,,,18,18,0,9,frames\Vid9_EM_T.png,frames\Vid9_L.png,['l'],1,[4.220077800011495],[None],4,1.8148186999897007,,,,,0,18,18,8,1699.376522799983,,20,Female,Right handed,Uncorrected vision difficulty,,,,,,,,,,,,,,,,,,,,,,,,,,,,,,,,,,,,,,,,1699.3636305999826,1699.376522799983,1699.376522799983,1699.376522799983,1699.376522799983,1699.376522799983,1699.376522799983,1703.61227339998,['l'],1,[4.220077800011495],[None],1703.6134347000043,1703.6262405999878,1703.6262405999878,1703.6262405999878,1705.4434023000067,4,1.8148186999897007,4,1.8148186999897007,,,,,,,,sub77_NB,001,2026-01-28_14h56.40.055,recognitionstage,,2025.1.1,59.98375639728381,2026-01-28 14h57.10.120766 +0530,
,,,19,19,0,25,frames\Vid25_BB_T.png,frames\Vid25_L.png,['r'],1,[3.014003499993123],[None],5,1.7137479999801144,,,,,0,19,19,24,1705.4785452999931,,20,Female,Right handed,Uncorrected vision difficulty,,,,,,,,,,,,,,,,,,,,,,,,,,,,,,,,,,,,,,,,1705.4556673000043,1705.4785452999931,1705.4785452999931,1705.4785452999931,1705.4785452999931,1705.4785452999931,1705.4785452999931,1708.4956874999916,['r'],1,[3.014003499993123],[None],1708.4966410000052,1708.509243699984,1708.509243699984,1708.509243699984,1710.2267729000014,5,1.7137479999801144,5,1.7137479999801144,,,,,,,,sub77_NB,001,2026-01-28_14h56.40.055,recognitionstage,,2025.1.1,59.98375639728381,2026-01-28 14h57.10.120766 +0530,
,,,20,20,0,33,frames\Vid33_BB_T.png,frames\Vid33_L.png,['l'],1,[5.8241055000107735],[None],5,0.9812428999866825,,,,,0,20,20,32,1710.2443289000075,,20,Female,Right handed,Uncorrected vision difficulty,,,,,,,,,,,,,,,,,,,,,,,,,,,,,,,,,,,,,,,,1710.2355883999844,1710.2443289000075,1710.2443289000075,1710.2443289000075,1710.2443289000075,1710.2443289000075,1710.2443289000075,1716.0779196000076,['l'],1,[5.8241055000107735],[None],1716.0792739999888,1716.0928595000005,1716.0928595000005,1716.0928595000005,1717.076733199996,5,0.9812428999866825,5,0.9812428999866825,,,,,,,,sub77_NB,001,2026-01-28_14h56.40.055,recognitionstage,,2025.1.1,59.98375639728381,2026-01-28 14h57.10.120766 +0530,
,,,21,21,0,13,frames\Vid13_BB_T.png,frames\Vid13_L.png,['r'],1,[7.198218000004999],[None],5,1.1984420999942813,,,,,0,21,21,12,1717.1263132999884,,20,Female,Right handed,Uncorrected vision difficulty,,,,,,,,,,,,,,,,,,,,,,,,,,,,,,,,,,,,,,,,1717.110877900006,1717.1263132999884,1717.1263132999884,1717.1263132999884,1717.1263132999884,1717.1263132999884,1717.1263132999884,1724.3280019999947,['r'],1,[7.198218000004999],[None],1724.3290316000057,1724.3437219999905,1724.3437219999905,1724.3437219999905,1725.543997700006,5,1.1984420999942813,5,1.1984420999942813,,,,,,,,sub77_NB,001,2026-01-28_14h56.40.055,recognitionstage,,2025.1.1,59.98375639728381,2026-01-28 14h57.10.120766 +0530,
,,,22,22,0,14,frames\Vid14_BB_T.png,frames\Vid14_L.png,['r'],1,[3.3198895000095945],[None],4,2.165222299983725,,,,,0,22,22,13,1725.61261739998,,20,Female,Right handed,Uncorrected vision difficulty,,,,,,,,,,,,,,,,,,,,,,,,,,,,,,,,,,,,,,,,1725.5899892000016,1725.61261739998,1725.61261739998,1725.61261739998,1725.61261739998,1725.61261739998,1725.61261739998,1728.9445425999875,['r'],1,[3.3198895000095945],[None],1728.9453582999995,1728.9599191999878,1728.9599191999878,1728.9599191999878,1731.1268452999939,4,2.165222299983725,4,2.165222299983725,,,,,,,,sub77_NB,001,2026-01-28_14h56.40.055,recognitionstage,,2025.1.1,59.98375639728381,2026-01-28 14h57.10.120766 +0530,
,,,23,23,0,2,frames\Vid2_BB_T.png,frames\Vid2_L.png,['r'],1,[3.729122999997344],[None],4,1.331538600003114,,,,,0,23,23,1,1731.179317000002,,20,Female,Right handed,Uncorrected vision difficulty,,,,,,,,,,,,,,,,,,,,,,,,,,,,,,,,,,,,,,,,1731.1675426999864,1731.179317000002,1731.179317000002,1731.179317000002,1731.179317000002,1731.179317000002,1731.179317000002,1734.9108968999935,['r'],1,[3.729122999997344],[None],1734.9119209999917,1734.9261927999905,1734.9261927999905,1734.9261927999905,1736.2601566999801,4,1.331538600003114,4,1.331538600003114,,,,,,,,sub77_NB,001,2026-01-28_14h56.40.055,recognitionstage,,2025.1.1,59.98375639728381,2026-01-28 14h57.10.120766 +0530,
,,,24,24,0,24,frames\Vid24_BB_T.png,frames\Vid24_L.png,['r'],1,[3.37245230001281],[None],5,1.4152324000024237,,,,,0,24,24,23,1736.2959139999875,,20,Female,Right handed,Uncorrected vision difficulty,,,,,,,,,,,,,,,,,,,,,,,,,,,,,,,,,,,,,,,,1736.272425400006,1736.2959139999875,1736.2959139999875,1736.2959139999875,1736.2959139999875,1736.2959139999875,1736.2959139999875,1739.6776729999983,['r'],1,[3.37245230001281],[None],1739.6784007999813,1739.6923641999892,1739.6923641999892,1739.6923641999892,1741.11028969998,5,1.4152324000024237,5,1.4152324000024237,,,,,,,,sub77_NB,001,2026-01-28_14h56.40.055,recognitionstage,,2025.1.1,59.98375639728381,2026-01-28 14h57.10.120766 +0530,
,,,25,25,0,5,frames\Vid5_EM_T.png,frames\Vid5_L.png,['l'],1,[5.604570999974385],[None],4,1.0142062999948394,,,,,0,25,25,4,1741.1598782000074,,20,Female,Right handed,Uncorrected vision difficulty,,,,,,,,,,,,,,,,,,,,,,,,,,,,,,,,,,,,,,,,1741.1396311999997,1741.1598782000074,1741.1598782000074,1741.1598782000074,1741.1598782000074,1741.1598782000074,1741.1598782000074,1746.7783995000063,['l'],1,[5.604570999974385],[None],1746.7791730999888,1746.7923820999858,1746.7923820999858,1746.7923820999858,1747.810458299995,4,1.0142062999948394,4,1.0142062999948394,,,,,,,,sub77_NB,001,2026-01-28_14h56.40.055,recognitionstage,,2025.1.1,59.98375639728381,2026-01-28 14h57.10.120766 +0530,
,,,26,26,0,4,frames\Vid4_EM_T.png,frames\Vid4_L.png,['l'],0,[7.629508799989708],[None],4,1.2649241000181064,,,,,0,26,26,3,1747.8788963999832,,20,Female,Right handed,Uncorrected vision difficulty,,,,,,,,,,,,,,,,,,,,,,,,,,,,,,,,,,,,,,,,1747.8557701999962,1747.8788963999832,1747.8788963999832,1747.8788963999832,1747.8788963999832,1747.8788963999832,1747.8788963999832,1755.5108428999956,['l'],0,[7.629508799989708],[None],1755.511921600002,1755.5263109999942,1755.5263109999942,1755.5263109999942,1756.7934959999984,4,1.2649241000181064,4,1.2649241000181064,,,,,,,,sub77_NB,001,2026-01-28_14h56.40.055,recognitionstage,,2025.1.1,59.98375639728381,2026-01-28 14h57.10.120766 +0530,
,,,27,27,0,12,frames\Vid12_EM_T.png,frames\Vid12_L.png,['l'],1,[2.861398700013524],[None],5,1.8138828999944963,,,,,0,27,27,11,1756.8631075999874,,20,Female,Right handed,Uncorrected vision difficulty,,,,,,,,,,,,,,,,,,,,,,,,,,,,,,,,,,,,,,,,1756.8378161999863,1756.8631075999874,1756.8631075999874,1756.8631075999874,1756.8631075999874,1756.8631075999874,1756.8631075999874,1759.7288005999872,['l'],1,[2.861398700013524],[None],1759.7300543999881,1759.743095199985,1759.743095199985,1759.743095199985,1761.559707599983,5,1.8138828999944963,5,1.8138828999944963,,,,,,,,sub77_NB,001,2026-01-28_14h56.40.055,recognitionstage,,2025.1.1,59.98375639728381,2026-01-28 14h57.10.120766 +0530,
,,,28,28,0,10,frames\Vid10_BB_T.png,frames\Vid10_L.png,['r'],1,[4.276432400016347],[None],5,2.14732219997677,,,,,0,28,28,9,1761.6160335000022,,20,Female,Right handed,Uncorrected vision difficulty,,,,,,,,,,,,,,,,,,,,,,,,,,,,,,,,,,,,,,,,1761.6022266999935,1761.6160335000022,1761.6160335000022,1761.6160335000022,1761.6160335000022,1761.6160335000022,1761.6160335000022,1765.895251000009,['r'],1,[4.276432400016347],[None],1765.8961853999936,1765.9092376999906,1765.9092376999906,1765.9092376999906,1768.060500099993,5,2.14732219997677,5,2.14732219997677,,,,,,,,sub77_NB,001,2026-01-28_14h56.40.055,recognitionstage,,2025.1.1,59.98375639728381,2026-01-28 14h57.10.120766 +0530,
,,,29,29,0,23,frames\Vid23_EM_T.png,frames\Vid23_L.png,['l'],1,[7.628616600006353],[None],3,2.3654276999877766,,,,,0,29,29,22,1768.0957122999826,,20,Female,Right handed,Uncorrected vision difficulty,,,,,,,,,,,,,,,,,,,,,,,,,,,,,,,,,,,,,,,,1768.0771089000045,1768.0957122999826,1768.0957122999826,1768.0957122999826,1768.0957122999826,1768.0957122999826,1768.0957122999826,1775.7274132999883,['l'],1,[7.628616600006353],[None],1775.7283149999857,1775.7435279999918,1775.7435279999918,1775.7435279999918,1778.110081299994,3,2.3654276999877766,3,2.3654276999877766,,,,,,,,sub77_NB,001,2026-01-28_14h56.40.055,recognitionstage,,2025.1.1,59.98375639728381,2026-01-28 14h57.10.120766 +0530,
,,,30,30,0,11,frames\Vid11_EM_T.png,frames\Vid11_L.png,['r'],1,[3.4363166999828536],[None],5,1.5481243999965955,,,,,0,30,30,10,1778.1600091999862,,20,Female,Right handed,Uncorrected vision difficulty,,,,,,,,,,,,,,,,,,,,,,,,,,,,,,,,,,,,,,,,1778.1512049000012,1778.1600091999862,1778.1600091999862,1778.1600091999862,1778.1600091999862,1778.1600091999862,1778.1600091999862,1781.611260100006,['r'],1,[3.4363166999828536],[None],1781.6120692999975,1781.6263753999956,1781.6263753999956,1781.6263753999956,1783.1768882999895,5,1.5481243999965955,5,1.5481243999965955,,,,,,,,sub77_NB,001,2026-01-28_14h56.40.055,recognitionstage,,2025.1.1,59.98375639728381,2026-01-28 14h57.10.120766 +0530,
,,,31,31,0,6,frames\Vid6_BB_T.png,frames\Vid6_L.png,['r'],1,[3.6713036999863107],[None],5,1.0477305999957025,,,,,0,31,31,5,1783.2291041999997,,20,Female,Right handed,Uncorrected vision difficulty,,,,,,,,,,,,,,,,,,,,,,,,,,,,,,,,,,,,,,,,1783.2186825999815,1783.2291041999997,1783.2291041999997,1783.2291041999997,1783.2291041999997,1783.2291041999997,1783.2291041999997,1786.911690000008,['r'],1,[3.6713036999863107],[None],1786.9125230000063,1786.925728000002,1786.925728000002,1786.925728000002,1787.9768541999802,5,1.0477305999957025,5,1.0477305999957025,,,,,,,,sub77_NB,001,2026-01-28_14h56.40.055,recognitionstage,,2025.1.1,59.98375639728381,2026-01-28 14h57.10.120766 +0530,
,,,32,32,0,27,frames\Vid27_BB_T.png,frames\Vid27_L.png,['r'],1,[2.1110966999840457],[None],5,0.6975529999763239,,,,,0,32,32,26,1787.9976079000044,,20,Female,Right handed,Uncorrected vision difficulty,,,,,,,,,,,,,,,,,,,,,,,,,,,,,,,,,,,,,,,,1787.98591269998,1787.9976079000044,1787.9976079000044,1787.9976079000044,1787.9976079000044,1787.9976079000044,1787.9976079000044,1790.1125319999992,['r'],1,[2.1110966999840457],[None],1790.1136379999807,1790.125895699981,1790.125895699981,1790.125895699981,1790.8266400999855,5,0.6975529999763239,5,0.6975529999763239,,,,,,,,sub77_NB,001,2026-01-28_14h56.40.055,recognitionstage,,2025.1.1,59.98375639728381,2026-01-28 14h57.10.120766 +0530,
,,,33,33,0,20,frames\Vid20_EM_T.png,frames\Vid20_L.png,['r'],1,[2.2556662000133656],[None],5,0.56470239997725,,,,,0,33,33,19,1790.8447979000048,,20,Female,Right handed,Uncorrected vision difficulty,,,,,,,,,,,,,,,,,,,,,,,,,,,,,,,,,,,,,,,,1790.8332389999996,1790.8447979000048,1790.8447979000048,1790.8447979000048,1790.8447979000048,1790.8447979000048,1790.8447979000048,1793.1118303999829,['r'],1,[2.2556662000133656],[None],1793.1128139999928,1793.1257810999814,1793.1257810999814,1793.1257810999814,1793.6931611000036,5,0.56470239997725,5,0.56470239997725,,,,,,,,sub77_NB,001,2026-01-28_14h56.40.055,recognitionstage,,2025.1.1,59.98375639728381,2026-01-28 14h57.10.120766 +0530,
,,,34,34,0,36,frames\Vid36_BB_T.png,frames\Vid36_L.png,['l'],0,[8.206712799990783],[None],3,2.2316756999935023,,,,,0,34,34,35,1793.7260019999812,,20,Female,Right handed,Uncorrected vision difficulty,,,,,,,,,,,,,,,,,,,,,,,,,,,,,,,,,,,,,,,,1793.7066009999835,1793.7260019999812,1793.7260019999812,1793.7260019999812,1793.7260019999812,1793.7260019999812,1793.7260019999812,1801.9450125999865,['l'],0,[8.206712799990783],[None],1801.9459141999832,1801.959233600006,1801.959233600006,1801.959233600006,1804.1931893999863,3,2.2316756999935023,3,2.2316756999935023,,,,,,,,sub77_NB,001,2026-01-28_14h56.40.055,recognitionstage,,2025.1.1,59.98375639728381,2026-01-28 14h57.10.120766 +0530,
,,,35,35,0,38,frames\Vid38_EM_T.png,frames\Vid38_L.png,['l'],1,[4.098426599986851],[None],5,1.646066899993457,,,,,0,35,35,37,1804.2262568000006,,20,Female,Right handed,Uncorrected vision difficulty,,,,,,,,,,,,,,,,,,,,,,,,,,,,,,,,,,,,,,,,1804.2045824000088,1804.2262568000006,1804.2262568000006,1804.2262568000006,1804.2262568000006,1804.2262568000006,1804.2262568000006,1808.3299347999855,['l'],1,[4.098426599986851],[None],1808.3310867999971,1808.3429737999977,1808.3429737999977,1808.3429737999977,1809.9931749999814,5,1.646066899993457,5,1.646066899993457,,,,,,,,sub77_NB,001,2026-01-28_14h56.40.055,recognitionstage,,2025.1.1,59.98375639728381,2026-01-28 14h57.10.120766 +0530,
,,,36,36,0,37,frames\Vid37_BB_T.png,frames\Vid37_L.png,['l'],1,[2.194881399977021],[None],5,0.8641469999856781,,,,,0,36,36,36,1810.0259303000057,,20,Female,Right handed,Uncorrected vision difficulty,,,,,,,,,,,,,,,,,,,,,,,,,,,,,,,,,,,,,,,,1810.0054845999985,1810.0259303000057,1810.0259303000057,1810.0259303000057,1810.0259303000057,1810.0259303000057,1810.0259303000057,1812.228158599988,['l'],1,[2.194881399977021],[None],1812.2292563999945,1812.2432283999806,1812.2432283999806,1812.2432283999806,1813.1100047999935,5,0.8641469999856781,5,0.8641469999856781,,,,,,,,sub77_NB,001,2026-01-28_14h56.40.055,recognitionstage,,2025.1.1,59.98375639728381,2026-01-28 14h57.10.120766 +0530,
,,,37,37,0,17,frames\Vid17_BB_T.png,frames\Vid17_L.png,['r'],1,[4.477428200014401],[None],5,0.8979966000188142,,,,,0,37,37,16,1813.1430838000088,,20,Female,Right handed,Uncorrected vision difficulty,,,,,,,,,,,,,,,,,,,,,,,,,,,,,,,,,,,,,,,,1813.1339379999845,1813.1430838000088,1813.1430838000088,1813.1430838000088,1813.1430838000088,1813.1430838000088,1813.1430838000088,1817.6281440999883,['r'],1,[4.477428200014401],[None],1817.6291756999854,1817.6424680000055,1817.6424680000055,1817.6424680000055,1818.5429426000046,5,0.8979966000188142,5,0.8979966000188142,,,,,,,,sub77_NB,001,2026-01-28_14h56.40.055,recognitionstage,,2025.1.1,59.98375639728381,2026-01-28 14h57.10.120766 +0530,
,,,38,38,0,40,frames\Vid40_EM_T.png,frames\Vid40_L.png,['l'],1,[6.505672400002368],[None],5,1.0656170999864116,,,,,0,38,38,39,1818.5627523000003,,20,Female,Right handed,Uncorrected vision difficulty,,,,,,,,,,,,,,,,,,,,,,,,,,,,,,,,,,,,,,,,1818.5503467999806,1818.5627523000003,1818.5627523000003,1818.5627523000003,1818.5627523000003,1818.5627523000003,1818.5627523000003,1825.0777718999889,['l'],1,[6.505672400002368],[None],1825.0787370000035,1825.093160599994,1825.093160599994,1825.093160599994,1826.1602657999902,5,1.0656170999864116,5,1.0656170999864116,,,,,,,,sub77_NB,001,2026-01-28_14h56.40.055,recognitionstage,,2025.1.1,59.98375639728381,2026-01-28 14h57.10.120766 +0530,
,,,39,39,0,30,frames\Vid30_EM_T.png,frames\Vid30_L.png,['l'],1,[6.258988799992949],[None],5,1.0828873999998905,,,,,0,39,39,29,1826.1775663000008,,20,Female,Right handed,Uncorrected vision difficulty,,,,,,,,,,,,,,,,,,,,,,,,,,,,,,,,,,,,,,,,1826.1699249999947,1826.1775663000008,1826.1775663000008,1826.1775663000008,1826.1775663000008,1826.1775663000008,1826.1775663000008,1832.4438015999913,['l'],1,[6.258988799992949],[None],1832.4443936999887,1832.459701499989,1832.459701499989,1832.459701499989,1833.5439125999983,5,1.0828873999998905,5,1.0828873999998905,,,,,,,,sub77_NB,001,2026-01-28_14h56.40.055,recognitionstage,,2025.1.1,59.98375639728381,2026-01-28 14h57.10.120766 +0530,
,,,,,,,,,,,,,,,,,,,,,,,,,20,Female,Right handed,Uncorrected vision difficulty,,,,,,,,,,,,,,,,,,,,,,,,,,,,,,,,,,,,,,,,,,,,,,,,,,,,,,,,,,,,,1833.544020900008,1833.5605111999903,1833.5605111999903,1837.295095999987,space,3.7239724000100978,None,sub77_NB,001,2026-01-28_14h56.40.055,recognitionstage,,2025.1.1,59.98375639728381,2026-01-28 14h57.10.120766 +0530,
