path,duration,is_repeat,thisN,thisTrialN,thisRepN,movie_id,target_img,lure_img,resp.keys,resp.corr,resp.rt,resp.duration,conf_radio.response,conf_radio.rt,movie.thisRepN,movie.thisTrialN,movie.thisN,movie.thisIndex,recogloop.thisRepN,recogloop.thisTrialN,recogloop.thisN,recogloop.thisIndex,thisRow.t,notes,age,gender,handedness,vision,caffeine_2h,alcohol_smoke_12h,demographics.started,demographics.stopped,Instructions.started,text1.started,key_resp.started,Instructions.stopped,key_resp.keys,key_resp.rt,key_resp.duration,instruction_2.started,text2.started,key_resp_2.started,instruction_2.stopped,key_resp_2.keys,key_resp_2.rt,key_resp_2.duration,Videos.started,movie_2.started,vigilance_resp.started,movie_2.stopped,Videos.stopped,movie.vigilance_resp.keys,vigilance_pressed,vigilance_correct,ISI.started,text.started,ISI.stopped,text.stopped,movie.vigilance_resp.rt,movie.vigilance_resp.duration,recognition.started,text_4.started,key_resp_3.started,recognition.stopped,key_resp_3.keys,key_resp_3.rt,key_resp_3.duration,recognition_task.started,leftimage.started,rightimage.started,resp.started,frames_question.started,right_label.started,left_label.started,recognition_task.stopped,recogloop.resp.keys,recogloop.resp.corr,recogloop.resp.rt,recogloop.resp.duration,confidence.started,conf_text.started,conf_radio.started,conf_label.started,confidence.stopped,recogloop.conf_radio.response,recogloop.conf_radio.rt,confidence,confidence_rt,thank_you.started,text_6.started,key_resp_4.started,thank_you.stopped,key_resp_4.keys,participant,session,date,expName,expVersion,psychopyVersion,frameRate,expStart,...103
,,,,,,,,,,,,,,,,,,,,,,,,,22,Male,Right handed,Corrected to normal,Caffeine consumed in last 2 hours?,Alcohol or smoking in last 12 hours?,0.008495200003380887,0.01096319999487605,,,,,,,,,,,,,,,,,,,,,,,,,,,,,,,,,,,,,,,,,,,,,,,,,,,,,,,,,,,,,,sub75_NB,001,2026-01-28_11h18.04.109,recognitionstage,,2025.1.1,60.007765002791984,2026-01-28 11h18.34.979729 +0530,
,,,,,,,,,,,,,,,,,,,,,,,,,22,Male,Right handed,Corrected to normal,,,,,0.010984199994709343,0.027370499999960884,0.027370499999960884,9.213549899999634,space,9.181402500005788,None,,,,,,,,,,,,,,,,,,,,,,,,,,,,,,,,,,,,,,,,,,,,,,,,,,,,,,,sub75_NB,001,2026-01-28_11h18.04.109,recognitionstage,,2025.1.1,60.007765002791984,2026-01-28 11h18.34.979729 +0530,
,,,,,,,,,,,,,,,,,,,,,,,,,22,Male,Right handed,Corrected to normal,,,,,,,,,,,,9.213617999994312,9.228484299994307,9.228484299994307,19.445838400002685,space,10.212081799996668,None,,,,,,,,,,,,,,,,,,,,,,,,,,,,,,,,,,,,,,,,,,,,,,,,sub75_NB,001,2026-01-28_11h18.04.109,recognitionstage,,2025.1.1,60.007765002791984,2026-01-28 11h18.34.979729 +0530,
Trimmed_videos/natural_32.mp4,32,0,44,44,0,,,,,,,,,,0,44,44,35,,,,,1522.8109167999937,,22,Male,Right handed,Corrected to normal,,,,,,,,,,,,,,,,,,,1522.769243200004,1522.8109167999937,1522.8109167999937,1555.2603625000047,1555.1040052000026,None,0,1,1555.2398710999987,1555.2603625000047,1557.7459762999933,1522.8109167999937,7.84147369999846,None,1557.7460551999975,1557.7614669000031,1557.7614669000031,1585.4295840999985,space,27.66329620000033,None,,,,,,,,,,,,,,,,,,,,,,,,,,,sub75_NB,001,2026-01-28_11h18.04.109,recognitionstage,,2025.1.1,60.007765002791984,2026-01-28 11h18.34.979729 +0530,
,,,0,0,0,38,frames\Vid38_EM_T.png,frames\Vid38_L.png,['l'],1,[7.397346700003254],[None],4,14.732533499991405,,,,,0,0,0,37,1585.4593660999963,,22,Male,Right handed,Corrected to normal,,,,,,,,,,,,,,,,,,,,,,,,,,,,,,,,,,,,,,,,1585.4485726999992,1585.4593660999963,1585.4593660999963,1585.4593660999963,1585.4593660999963,1585.4593660999963,1585.4593660999963,1592.8622264000005,['l'],1,[7.397346700003254],[None],1592.8632397000038,1592.8775228000013,1592.8775228000013,1592.8775228000013,1607.6114390000002,4,14.732533499991405,4,14.732533499991405,,,,,,sub75_NB,001,2026-01-28_11h18.04.109,recognitionstage,,2025.1.1,60.007765002791984,2026-01-28 11h18.34.979729 +0530,
,,,1,1,0,6,frames\Vid6_BB_T.png,frames\Vid6_L.png,['l'],1,[2.972093300006236],[None],5,2.397745700000087,,,,,0,1,1,5,1607.6764814000053,,22,Male,Right handed,Corrected to normal,,,,,,,,,,,,,,,,,,,,,,,,,,,,,,,,,,,,,,,,1607.6584603999945,1607.6764814000053,1607.6764814000053,1607.6764814000053,1607.6764814000053,1607.6764814000053,1607.6764814000053,1610.6629182000033,['l'],1,[2.972093300006236],[None],1610.6641915000073,1610.6770610999956,1610.6770610999956,1610.6770610999956,1613.0776292999944,5,2.397745700000087,5,2.397745700000087,,,,,,sub75_NB,001,2026-01-28_11h18.04.109,recognitionstage,,2025.1.1,60.007765002791984,2026-01-28 11h18.34.979729 +0530,
,,,2,2,0,9,frames\Vid9_EM_T.png,frames\Vid9_L.png,['r'],1,[6.897909899998922],[None],5,2.414886500002467,,,,,0,2,2,8,1613.1430146000057,,22,Male,Right handed,Corrected to normal,,,,,,,,,,,,,,,,,,,,,,,,,,,,,,,,,,,,,,,,1613.1269066999957,1613.1430146000057,1613.1430146000057,1613.1430146000057,1613.1430146000057,1613.1430146000057,1613.1430146000057,1620.0463679999957,['r'],1,[6.897909899998922],[None],1620.0471972999949,1620.0613328000036,1620.0613328000036,1620.0613328000036,1622.4777564999968,5,2.414886500002467,5,2.414886500002467,,,,,,sub75_NB,001,2026-01-28_11h18.04.109,recognitionstage,,2025.1.1,60.007765002791984,2026-01-28 11h18.34.979729 +0530,
,,,3,3,0,18,frames\Vid18_EM_T.png,frames\Vid18_L.png,['r'],1,[4.1417811999999685],[None],4,2.1813378000078956,,,,,0,3,3,17,1622.4989389999973,,22,Male,Right handed,Corrected to normal,,,,,,,,,,,,,,,,,,,,,,,,,,,,,,,,,,,,,,,,1622.488248099995,1622.4989389999973,1622.4989389999973,1622.4989389999973,1622.4989389999973,1622.4989389999973,1622.4989389999973,1626.6463251999958,['r'],1,[4.1417811999999685],[None],1626.6474715999939,1626.6613184000016,1626.6613184000016,1626.6613184000016,1628.8452154999977,4,2.1813378000078956,4,2.1813378000078956,,,,,,sub75_NB,001,2026-01-28_11h18.04.109,recognitionstage,,2025.1.1,60.007765002791984,2026-01-28 11h18.34.979729 +0530,
,,,4,4,0,2,frames\Vid2_BB_T.png,frames\Vid2_L.png,['l'],1,[4.545696799992584],[None],5,2.1645627999969292,,,,,0,4,4,1,1628.8948980999994,,22,Male,Right handed,Corrected to normal,,,,,,,,,,,,,,,,,,,,,,,,,,,,,,,,,,,,,,,,1628.8828103999986,1628.8948980999994,1628.8948980999994,1628.8948980999994,1628.8948980999994,1628.8948980999994,1628.8948980999994,1633.4463881999982,['l'],1,[4.545696799992584],[None],1633.4475055999937,1633.4605272000044,1633.4605272000044,1633.4605272000044,1635.6280661000055,5,2.1645627999969292,5,2.1645627999969292,,,,,,sub75_NB,001,2026-01-28_11h18.04.109,recognitionstage,,2025.1.1,60.007765002791984,2026-01-28 11h18.34.979729 +0530,
,,,5,5,0,37,frames\Vid37_BB_T.png,frames\Vid37_L.png,['r'],1,[4.45668580000347],[None],5,3.2821137999999337,,,,,0,5,5,36,1635.6638646000065,,22,Male,Right handed,Corrected to normal,,,,,,,,,,,,,,,,,,,,,,,,,,,,,,,,,,,,,,,,1635.6419028999953,1635.6638646000065,1635.6638646000065,1635.6638646000065,1635.6638646000065,1635.6638646000065,1635.6638646000065,1640.1292748999986,['r'],1,[4.45668580000347],[None],1640.130352399996,1640.1448184000037,1640.1448184000037,1640.1448184000037,1643.4279982000007,5,3.2821137999999337,5,3.2821137999999337,,,,,,sub75_NB,001,2026-01-28_11h18.04.109,recognitionstage,,2025.1.1,60.007765002791984,2026-01-28 11h18.34.979729 +0530,
,,,6,6,0,7,frames\Vid7_EM_T.png,frames\Vid7_L.png,['r'],1,[3.0347115000040503],[None],5,1.2472456000105012,,,,,0,6,6,6,1643.4780228000018,,22,Male,Right handed,Corrected to normal,,,,,,,,,,,,,,,,,,,,,,,,,,,,,,,,,,,,,,,,1643.4711194999982,1643.4780228000018,1643.4780228000018,1643.4780228000018,1643.4780228000018,1643.4780228000018,1643.4780228000018,1646.5303251000005,['r'],1,[3.0347115000040503],[None],1646.5315035999956,1646.5441264999972,1646.5441264999972,1646.5441264999972,1647.7951048999967,5,1.2472456000105012,5,1.2472456000105012,,,,,,sub75_NB,001,2026-01-28_11h18.04.109,recognitionstage,,2025.1.1,60.007765002791984,2026-01-28 11h18.34.979729 +0530,
,,,7,7,0,30,frames\Vid30_EM_T.png,frames\Vid30_L.png,['r'],1,[8.345599600012065],[None],5,1.3477312000031816,,,,,0,7,7,29,1647.8149111999955,,22,Male,Right handed,Corrected to normal,,,,,,,,,,,,,,,,,,,,,,,,,,,,,,,,,,,,,,,,1647.8050956999941,1647.8149111999955,1647.8149111999955,1647.8149111999955,1647.8149111999955,1647.8149111999955,1647.8149111999955,1656.1630618000054,['r'],1,[8.345599600012065],[None],1656.163893200006,1656.177563899997,1656.177563899997,1656.177563899997,1657.5281901999988,5,1.3477312000031816,5,1.3477312000031816,,,,,,sub75_NB,001,2026-01-28_11h18.04.109,recognitionstage,,2025.1.1,60.007765002791984,2026-01-28 11h18.34.979729 +0530,
,,,8,8,0,31,frames\Vid31_EM_T.png,frames\Vid31_L.png,['r'],1,[1.7428543999994872],[None],5,1.44786820000445,,,,,0,8,8,30,1657.5457135000033,,22,Male,Right handed,Corrected to normal,,,,,,,,,,,,,,,,,,,,,,,,,,,,,,,,,,,,,,,,1657.536067699999,1657.5457135000033,1657.5457135000033,1657.5457135000033,1657.5457135000033,1657.5457135000033,1657.5457135000033,1659.296297199995,['r'],1,[1.7428543999994872],[None],1659.2971924000012,1659.3105221000005,1659.3105221000005,1659.3105221000005,1660.7617777999985,5,1.44786820000445,5,1.44786820000445,,,,,,sub75_NB,001,2026-01-28_11h18.04.109,recognitionstage,,2025.1.1,60.007765002791984,2026-01-28 11h18.34.979729 +0530,
,,,9,9,0,27,frames\Vid27_BB_T.png,frames\Vid27_L.png,['r'],1,[2.925563900003908],[None],4,2.9149055000016233,,,,,0,9,9,26,1660.779056600004,,22,Male,Right handed,Corrected to normal,,,,,,,,,,,,,,,,,,,,,,,,,,,,,,,,,,,,,,,,1660.7714687999978,1660.779056600004,1660.779056600004,1660.779056600004,1660.779056600004,1660.779056600004,1660.779056600004,1663.7127369999944,['r'],1,[2.925563900003908],[None],1663.713823900005,1663.727669999993,1663.727669999993,1663.727669999993,1666.645100499998,4,2.9149055000016233,4,2.9149055000016233,,,,,,sub75_NB,001,2026-01-28_11h18.04.109,recognitionstage,,2025.1.1,60.007765002791984,2026-01-28 11h18.34.979729 +0530,
,,,10,10,0,10,frames\Vid10_BB_T.png,frames\Vid10_L.png,['l'],1,[4.9053792000049725],[None],4,1.0985313999990467,,,,,0,10,10,9,1666.7111170999997,,22,Male,Right handed,Corrected to normal,,,,,,,,,,,,,,,,,,,,,,,,,,,,,,,,,,,,,,,,1666.6887794000068,1666.7111170999997,1666.7111170999997,1666.7111170999997,1666.7111170999997,1666.7111170999997,1666.7111170999997,1671.6292282000068,['l'],1,[4.9053792000049725],[None],1671.630167299998,1671.6439849000017,1671.6439849000017,1671.6439849000017,1672.7448088999954,4,1.0985313999990467,4,1.0985313999990467,,,,,,sub75_NB,001,2026-01-28_11h18.04.109,recognitionstage,,2025.1.1,60.007765002791984,2026-01-28 11h18.34.979729 +0530,
,,,11,11,0,21,frames\Vid21_BB_T.png,frames\Vid21_L.png,['l'],1,[5.180021199994371],[None],5,1.9481076000083704,,,,,0,11,11,20,1672.7804630000028,,22,Male,Right handed,Corrected to normal,,,,,,,,,,,,,,,,,,,,,,,,,,,,,,,,,,,,,,,,1672.7580906999938,1672.7804630000028,1672.7804630000028,1672.7804630000028,1672.7804630000028,1672.7804630000028,1672.7804630000028,1677.962595399993,['l'],1,[5.180021199994371],[None],1677.963422300003,1677.9774617999938,1677.9774617999938,1677.9774617999938,1679.9286599000043,5,1.9481076000083704,5,1.9481076000083704,,,,,,sub75_NB,001,2026-01-28_11h18.04.109,recognitionstage,,2025.1.1,60.007765002791984,2026-01-28 11h18.34.979729 +0530,
,,,12,12,0,28,frames\Vid28_EM_T.png,frames\Vid28_L.png,['r'],1,[3.7435873999929754],[None],5,3.1809181999997236,,,,,0,12,12,27,1679.961097499996,,22,Male,Right handed,Corrected to normal,,,,,,,,,,,,,,,,,,,,,,,,,,,,,,,,,,,,,,,,1679.938882100003,1679.961097499996,1679.961097499996,1679.961097499996,1679.961097499996,1679.961097499996,1679.961097499996,1683.7129487000057,['r'],1,[3.7435873999929754],[None],1683.7139484000072,1683.7271922000073,1683.7271922000073,1683.7271922000073,1686.912012700006,5,3.1809181999997236,5,3.1809181999997236,,,,,,sub75_NB,001,2026-01-28_11h18.04.109,recognitionstage,,2025.1.1,60.007765002791984,2026-01-28 11h18.34.979729 +0530,
,,,13,13,0,12,frames\Vid12_EM_T.png,frames\Vid12_L.png,['r'],1,[7.5587423000106355],[None],4,2.516151199990418,,,,,0,13,13,11,1686.9779191999987,,22,Male,Right handed,Corrected to normal,,,,,,,,,,,,,,,,,,,,,,,,,,,,,,,,,,,,,,,,1686.9575468999974,1686.9779191999987,1686.9779191999987,1686.9779191999987,1686.9779191999987,1686.9779191999987,1686.9779191999987,1694.5454725000018,['r'],1,[7.5587423000106355],[None],1694.546207099993,1694.560895799994,1694.560895799994,1694.560895799994,1697.0783482999977,4,2.516151199990418,4,2.516151199990418,,,,,,sub75_NB,001,2026-01-28_11h18.04.109,recognitionstage,,2025.1.1,60.007765002791984,2026-01-28 11h18.34.979729 +0530,
,,,14,14,0,23,frames\Vid23_EM_T.png,frames\Vid23_L.png,['r'],1,[2.8229934999981197],[None],5,1.6152435999974841,,,,,0,14,14,22,1697.1136590999959,,22,Male,Right handed,Corrected to normal,,,,,,,,,,,,,,,,,,,,,,,,,,,,,,,,,,,,,,,,1697.0951346999937,1697.1136590999959,1697.1136590999959,1697.1136590999959,1697.1136590999959,1697.1136590999959,1697.1136590999959,1699.946293400004,['r'],1,[2.8229934999981197],[None],1699.9472528000042,1699.9609476000041,1699.9609476000041,1699.9609476000041,1701.577981399998,5,1.6152435999974841,5,1.6152435999974841,,,,,,sub75_NB,001,2026-01-28_11h18.04.109,recognitionstage,,2025.1.1,60.007765002791984,2026-01-28 11h18.34.979729 +0530,
,,,15,15,0,39,frames\Vid39_BB_T.png,frames\Vid39_L.png,['r'],1,[6.01252660001046],[None],4,1.498505399998976,,,,,0,15,15,38,1701.5961562000011,,22,Male,Right handed,Corrected to normal,,,,,,,,,,,,,,,,,,,,,,,,,,,,,,,,,,,,,,,,1701.586870500003,1701.5961562000011,1701.5961562000011,1701.5961562000011,1701.5961562000011,1701.5961562000011,1701.5961562000011,1707.612160100005,['r'],1,[6.01252660001046],[None],1707.6133360999956,1707.6276835000026,1707.6276835000026,1707.6276835000026,1709.128838100005,4,1.498505399998976,4,1.498505399998976,,,,,,sub75_NB,001,2026-01-28_11h18.04.109,recognitionstage,,2025.1.1,60.007765002791984,2026-01-28 11h18.34.979729 +0530,
,,,16,16,0,22,frames\Vid22_EM_T.png,frames\Vid22_L.png,['l'],1,[2.9358944999985397],[None],5,2.413588499999605,,,,,0,16,16,21,1709.1608493999956,,22,Male,Right handed,Corrected to normal,,,,,,,,,,,,,,,,,,,,,,,,,,,,,,,,,,,,,,,,1709.144180400006,1709.1608493999956,1709.1608493999956,1709.1608493999956,1709.1608493999956,1709.1608493999956,1709.1608493999956,1712.1136493999948,['l'],1,[2.9358944999985397],[None],1712.1146210000006,1712.1273636999977,1712.1273636999977,1712.1273636999977,1714.5457362000016,5,2.413588499999605,5,2.413588499999605,,,,,,sub75_NB,001,2026-01-28_11h18.04.109,recognitionstage,,2025.1.1,60.007765002791984,2026-01-28 11h18.34.979729 +0530,
,,,17,17,0,32,frames\Vid32_EM_T.png,frames\Vid32_L.png,['l'],1,[2.943210600002203],[None],5,1.6805900000035763,,,,,0,17,17,31,1714.5775742999977,,22,Male,Right handed,Corrected to normal,,,,,,,,,,,,,,,,,,,,,,,,,,,,,,,,,,,,,,,,1714.557064099994,1714.5775742999977,1714.5775742999977,1714.5775742999977,1714.5775742999977,1714.5775742999977,1714.5775742999977,1717.5303382999991,['l'],1,[2.943210600002203],[None],1717.531503899998,1717.5592665000004,1717.5592665000004,1717.5592665000004,1719.2288214,5,1.6805900000035763,5,1.6805900000035763,,,,,,sub75_NB,001,2026-01-28_11h18.04.109,recognitionstage,,2025.1.1,60.007765002791984,2026-01-28 11h18.34.979729 +0530,
,,,18,18,0,3,frames\Vid3_BB_T.png,frames\Vid3_L.png,['l'],1,[7.346616800001357],[None],4,1.7641468999936478,,,,,0,18,18,2,1719.2780639999983,,22,Male,Right handed,Corrected to normal,,,,,,,,,,,,,,,,,,,,,,,,,,,,,,,,,,,,,,,,1719.268199500002,1719.2780639999983,1719.2780639999983,1719.2780639999983,1719.2780639999983,1719.2780639999983,1719.2780639999983,1726.6300773999974,['l'],1,[7.346616800001357],[None],1726.6311083000037,1726.6438695999968,1726.6438695999968,1726.6438695999968,1728.4114382999978,4,1.7641468999936478,4,1.7641468999936478,,,,,,sub75_NB,001,2026-01-28_11h18.04.109,recognitionstage,,2025.1.1,60.007765002791984,2026-01-28 11h18.34.979729 +0530,
,,,19,19,0,25,frames\Vid25_BB_T.png,frames\Vid25_L.png,['l'],1,[12.312721000009333],[None],4,1.8974878000008175,,,,,0,19,19,24,1728.4318475000036,,22,Male,Right handed,Corrected to normal,,,,,,,,,,,,,,,,,,,,,,,,,,,,,,,,,,,,,,,,1728.421660299995,1728.4318475000036,1728.4318475000036,1728.4318475000036,1728.4318475000036,1728.4318475000036,1728.4318475000036,1740.7465312999993,['l'],1,[12.312721000009333],[None],1740.747547299994,1740.7611005000072,1740.7611005000072,1740.7611005000072,1742.6622948000004,4,1.8974878000008175,4,1.8974878000008175,,,,,,sub75_NB,001,2026-01-28_11h18.04.109,recognitionstage,,2025.1.1,60.007765002791984,2026-01-28 11h18.34.979729 +0530,
,,,20,20,0,26,frames\Vid26_EM_T.png,frames\Vid26_L.png,['r'],1,[6.018513799994253],[None],4,2.013924599988968,,,,,0,20,20,25,1742.6940701999993,,22,Male,Right handed,Corrected to normal,,,,,,,,,,,,,,,,,,,,,,,,,,,,,,,,,,,,,,,,1742.6780614000018,1742.6940701999993,1742.6940701999993,1742.6940701999993,1742.6940701999993,1742.6940701999993,1742.6940701999993,1748.7136447999947,['r'],1,[6.018513799994253],[None],1748.7145988999982,1748.7276392000058,1748.7276392000058,1748.7276392000058,1750.7457696000056,4,2.013924599988968,4,2.013924599988968,,,,,,sub75_NB,001,2026-01-28_11h18.04.109,recognitionstage,,2025.1.1,60.007765002791984,2026-01-28 11h18.34.979729 +0530,
,,,21,21,0,4,frames\Vid4_EM_T.png,frames\Vid4_L.png,['r'],1,[7.245172200011439],[None],4,1.7132053999957861,,,,,0,21,21,3,1750.8115268999973,,22,Male,Right handed,Corrected to normal,,,,,,,,,,,,,,,,,,,,,,,,,,,,,,,,,,,,,,,,1750.7934570999932,1750.8115268999973,1750.8115268999973,1750.8115268999973,1750.8115268999973,1750.8115268999973,1750.8115268999973,1758.063837099995,['r'],1,[7.245172200011439],[None],1758.0651975999936,1758.0773866999953,1758.0773866999953,1758.0773866999953,1759.7952527000016,4,1.7132053999957861,4,1.7132053999957861,,,,,,sub75_NB,001,2026-01-28_11h18.04.109,recognitionstage,,2025.1.1,60.007765002791984,2026-01-28 11h18.34.979729 +0530,
,,,22,22,0,13,frames\Vid13_BB_T.png,frames\Vid13_L.png,['r'],1,[5.040874799989979],[None],5,1.5641860999894561,,,,,0,22,22,12,1759.8477195000014,,22,Male,Right handed,Corrected to normal,,,,,,,,,,,,,,,,,,,,,,,,,,,,,,,,,,,,,,,,1759.8298907999997,1759.8477195000014,1759.8477195000014,1759.8477195000014,1759.8477195000014,1759.8477195000014,1759.8477195000014,1764.896783899996,['r'],1,[5.040874799989979],[None],1764.897739699998,1764.9109349000064,1764.9109349000064,1764.9109349000064,1766.4780649000022,5,1.5641860999894561,5,1.5641860999894561,,,,,,sub75_NB,001,2026-01-28_11h18.04.109,recognitionstage,,2025.1.1,60.007765002791984,2026-01-28 11h18.34.979729 +0530,
,,,23,23,0,15,frames\Vid15_BB_T.png,frames\Vid15_L.png,['r'],1,[4.893566099999589],[None],4,1.3305232999991858,,,,,0,23,23,14,1766.5471806999994,,22,Male,Right handed,Corrected to normal,,,,,,,,,,,,,,,,,,,,,,,,,,,,,,,,,,,,,,,,1766.5252177999937,1766.5471806999994,1766.5471806999994,1766.5471806999994,1766.5471806999994,1766.5471806999994,1766.5471806999994,1771.4470811000065,['r'],1,[4.893566099999589],[None],1771.4482909999933,1771.4609396000014,1771.4609396000014,1771.4609396000014,1772.7953869000048,4,1.3305232999991858,4,1.3305232999991858,,,,,,sub75_NB,001,2026-01-28_11h18.04.109,recognitionstage,,2025.1.1,60.007765002791984,2026-01-28 11h18.34.979729 +0530,
,,,24,24,0,17,frames\Vid17_BB_T.png,frames\Vid17_L.png,['r'],1,[3.7861811999900965],[None],5,1.1490211999916937,,,,,0,24,24,16,1772.8304296999995,,22,Male,Right handed,Corrected to normal,,,,,,,,,,,,,,,,,,,,,,,,,,,,,,,,,,,,,,,,1772.8195192999992,1772.8304296999995,1772.8304296999995,1772.8304296999995,1772.8304296999995,1772.8304296999995,1772.8304296999995,1776.6291809999966,['r'],1,[3.7861811999900965],[None],1776.629958599995,1776.6444481999933,1776.6444481999933,1776.6444481999933,1777.795054400005,5,1.1490211999916937,5,1.1490211999916937,,,,,,sub75_NB,001,2026-01-28_11h18.04.109,recognitionstage,,2025.1.1,60.007765002791984,2026-01-28 11h18.34.979729 +0530,
,,,25,25,0,1,frames\Vid1_EM_T.png,frames\Vid1_L.png,['l'],1,[7.8659793000115314],[None],5,1.632083500007866,,,,,0,25,25,0,1777.8626130000048,,22,Male,Right handed,Corrected to normal,,,,,,,,,,,,,,,,,,,,,,,,,,,,,,,,,,,,,,,,1777.8413317999948,1777.8626130000048,1777.8626130000048,1777.8626130000048,1777.8626130000048,1777.8626130000048,1777.8626130000048,1785.7292377999984,['l'],1,[7.8659793000115314],[None],1785.7300925000018,1785.7442704999994,1785.7442704999994,1785.7442704999994,1787.378928799997,5,1.632083500007866,5,1.632083500007866,,,,,,sub75_NB,001,2026-01-28_11h18.04.109,recognitionstage,,2025.1.1,60.007765002791984,2026-01-28 11h18.34.979729 +0530,
,,,26,26,0,33,frames\Vid33_BB_T.png,frames\Vid33_L.png,['l'],1,[4.730867100006435],[None],4,1.4167790000064997,,,,,0,26,26,32,1787.4137130000017,,22,Male,Right handed,Corrected to normal,,,,,,,,,,,,,,,,,,,,,,,,,,,,,,,,,,,,,,,,1787.3897875999974,1787.4137130000017,1787.4137130000017,1787.4137130000017,1787.4137130000017,1787.4137130000017,1787.4137130000017,1792.1451938999962,['l'],1,[4.730867100006435],[None],1792.1459312999941,1792.1611337000068,1792.1611337000068,1792.1611337000068,1793.5780857000063,4,1.4167790000064997,4,1.4167790000064997,,,,,,sub75_NB,001,2026-01-28_11h18.04.109,recognitionstage,,2025.1.1,60.007765002791984,2026-01-28 11h18.34.979729 +0530,
,,,27,27,0,16,frames\Vid16_EM_T.png,frames\Vid16_L.png,['l'],0,[6.028185599992867],[None],4,1.6318105999962427,,,,,0,27,27,15,1793.628572799993,,22,Male,Right handed,Corrected to normal,,,,,,,,,,,,,,,,,,,,,,,,,,,,,,,,,,,,,,,,1793.6181527000008,1793.628572799993,1793.628572799993,1793.628572799993,1793.628572799993,1793.628572799993,1793.628572799993,1799.662752499993,['l'],0,[6.028185599992867],[None],1799.663851499994,1799.677680199995,1799.677680199995,1799.677680199995,1801.3115336000046,4,1.6318105999962427,4,1.6318105999962427,,,,,,sub75_NB,001,2026-01-28_11h18.04.109,recognitionstage,,2025.1.1,60.007765002791984,2026-01-28 11h18.34.979729 +0530,
,,,28,28,0,40,frames\Vid40_EM_T.png,frames\Vid40_L.png,['r'],1,[4.492784899994149],[None],5,2.2828587999974843,,,,,0,28,28,39,1801.3319097000058,,22,Male,Right handed,Corrected to normal,,,,,,,,,,,,,,,,,,,,,,,,,,,,,,,,,,,,,,,,1801.3186503000034,1801.3319097000058,1801.3319097000058,1801.3319097000058,1801.3319097000058,1801.3319097000058,1801.3319097000058,1805.8288471999986,['r'],1,[4.492784899994149],[None],1805.8296161000035,1805.8443665999948,1805.8443665999948,1805.8443665999948,1808.1280126000056,5,2.2828587999974843,5,2.2828587999974843,,,,,,sub75_NB,001,2026-01-28_11h18.04.109,recognitionstage,,2025.1.1,60.007765002791984,2026-01-28 11h18.34.979729 +0530,
,,,29,29,0,11,frames\Vid11_EM_T.png,frames\Vid11_L.png,['r'],1,[3.0709038999921177],[None],5,0.9155740999995032,,,,,0,29,29,10,1808.1776813000033,,22,Male,Right handed,Corrected to normal,,,,,,,,,,,,,,,,,,,,,,,,,,,,,,,,,,,,,,,,1808.1688763999991,1808.1776813000033,1808.1776813000033,1808.1776813000033,1808.1776813000033,1808.1776813000033,1808.1776813000033,1811.2623083999933,['r'],1,[3.0709038999921177],[None],1811.263325699998,1811.2773252000043,1811.2773252000043,1811.2773252000043,1812.1948612999986,5,0.9155740999995032,5,0.9155740999995032,,,,,,sub75_NB,001,2026-01-28_11h18.04.109,recognitionstage,,2025.1.1,60.007765002791984,2026-01-28 11h18.34.979729 +0530,
,,,30,30,0,35,frames\Vid35_EM_T.png,frames\Vid35_L.png,['l'],1,[3.801653799993801],[None],5,1.1309806000062963,,,,,0,30,30,34,1812.2149918000068,,22,Male,Right handed,Corrected to normal,,,,,,,,,,,,,,,,,,,,,,,,,,,,,,,,,,,,,,,,1812.2024447000003,1812.2149918000068,1812.2149918000068,1812.2149918000068,1812.2149918000068,1812.2149918000068,1812.2149918000068,1816.029954800004,['l'],1,[3.801653799993801],[None],1816.0309410000045,1816.0439806000068,1816.0439806000068,1816.0439806000068,1817.1783664999966,5,1.1309806000062963,5,1.1309806000062963,,,,,,sub75_NB,001,2026-01-28_11h18.04.109,recognitionstage,,2025.1.1,60.007765002791984,2026-01-28 11h18.34.979729 +0530,
,,,31,31,0,14,frames\Vid14_BB_T.png,frames\Vid14_L.png,['r'],1,[3.235531500002253],[None],5,0.6146607999980915,,,,,0,31,31,13,1817.2450589000073,,22,Male,Right handed,Corrected to normal,,,,,,,,,,,,,,,,,,,,,,,,,,,,,,,,,,,,,,,,1817.2227506000054,1817.2450589000073,1817.2450589000073,1817.2450589000073,1817.2450589000073,1817.2450589000073,1817.2450589000073,1820.4962778000045,['r'],1,[3.235531500002253],[None],1820.4970778999996,1820.510617299995,1820.510617299995,1820.510617299995,1821.1283719000057,5,0.6146607999980915,5,0.6146607999980915,,,,,,sub75_NB,001,2026-01-28_11h18.04.109,recognitionstage,,2025.1.1,60.007765002791984,2026-01-28 11h18.34.979729 +0530,
,,,32,32,0,19,frames\Vid19_BB_T.png,frames\Vid19_L.png,['r'],1,[6.693108300009044],[None],4,1.4641383999987738,,,,,0,32,32,18,1821.1635395000048,,22,Male,Right handed,Corrected to normal,,,,,,,,,,,,,,,,,,,,,,,,,,,,,,,,,,,,,,,,1821.139295400004,1821.1635395000048,1821.1635395000048,1821.1635395000048,1821.1635395000048,1821.1635395000048,1821.1635395000048,1827.8627662999934,['r'],1,[6.693108300009044],[None],1827.8639689999982,1827.8776329999964,1827.8776329999964,1827.8776329999964,1829.3455168999935,4,1.4641383999987738,4,1.4641383999987738,,,,,,sub75_NB,001,2026-01-28_11h18.04.109,recognitionstage,,2025.1.1,60.007765002791984,2026-01-28 11h18.34.979729 +0530,
,,,33,33,0,8,frames\Vid8_BB_T.png,frames\Vid8_L.png,['l'],1,[7.5414810000074795],[None],5,1.9485813999926904,,,,,0,33,33,7,1829.3951138999983,,22,Male,Right handed,Corrected to normal,,,,,,,,,,,,,,,,,,,,,,,,,,,,,,,,,,,,,,,,1829.3832663000067,1829.3951138999983,1829.3951138999983,1829.3951138999983,1829.3951138999983,1829.3951138999983,1829.3951138999983,1836.9458457,['l'],1,[7.5414810000074795],[None],1836.946542699996,1836.9606804000068,1836.9606804000068,1836.9606804000068,1838.9120049000048,5,1.9485813999926904,5,1.9485813999926904,,,,,,sub75_NB,001,2026-01-28_11h18.04.109,recognitionstage,,2025.1.1,60.007765002791984,2026-01-28 11h18.34.979729 +0530,
,,,34,34,0,20,frames\Vid20_EM_T.png,frames\Vid20_L.png,['l'],1,[2.8133113000076264],[None],5,1.2812032999936491,,,,,0,34,34,19,1838.9471499000065,,22,Male,Right handed,Corrected to normal,,,,,,,,,,,,,,,,,,,,,,,,,,,,,,,,,,,,,,,,1838.9240923000034,1838.9471499000065,1838.9471499000065,1838.9471499000065,1838.9471499000065,1838.9471499000065,1838.9471499000065,1841.7625723999954,['l'],1,[2.8133113000076264],[None],1841.763634300005,1841.7771447999985,1841.7771447999985,1841.7771447999985,1843.0621050000045,5,1.2812032999936491,5,1.2812032999936491,,,,,,sub75_NB,001,2026-01-28_11h18.04.109,recognitionstage,,2025.1.1,60.007765002791984,2026-01-28 11h18.34.979729 +0530,
,,,35,35,0,36,frames\Vid36_BB_T.png,frames\Vid36_L.png,['l'],1,[2.682811499995296],[None],5,1.046331999998074,,,,,0,35,35,35,1843.0938447999943,,22,Male,Right handed,Corrected to normal,,,,,,,,,,,,,,,,,,,,,,,,,,,,,,,,,,,,,,,,1843.0752274999977,1843.0938447999943,1843.0938447999943,1843.0938447999943,1843.0938447999943,1843.0938447999943,1843.0938447999943,1845.7808965000004,['l'],1,[2.682811499995296],[None],1845.7818155999994,1845.7939351999958,1845.7939351999958,1845.7939351999958,1846.844926100006,5,1.046331999998074,5,1.046331999998074,,,,,,sub75_NB,001,2026-01-28_11h18.04.109,recognitionstage,,2025.1.1,60.007765002791984,2026-01-28 11h18.34.979729 +0530,
,,,36,36,0,29,frames\Vid29_BB_T.png,frames\Vid29_L.png,['r'],1,[8.306684700000915],[None],4,0.9657855999976164,,,,,0,36,36,28,1846.8778331000067,,22,Male,Right handed,Corrected to normal,,,,,,,,,,,,,,,,,,,,,,,,,,,,,,,,,,,,,,,,1846.856227700002,1846.8778331000067,1846.8778331000067,1846.8778331000067,1846.8778331000067,1846.8778331000067,1846.8778331000067,1855.196187900001,['r'],1,[8.306684700000915],[None],1855.1969681000046,1855.210518199994,1855.210518199994,1855.210518199994,1856.178012999997,4,0.9657855999976164,4,0.9657855999976164,,,,,,sub75_NB,001,2026-01-28_11h18.04.109,recognitionstage,,2025.1.1,60.007765002791984,2026-01-28 11h18.34.979729 +0530,
,,,37,37,0,24,frames\Vid24_BB_T.png,frames\Vid24_L.png,['r'],1,[4.037812900001882],[None],5,2.2138244999950984,,,,,0,37,37,23,1856.2107781999948,,22,Male,Right handed,Corrected to normal,,,,,,,,,,,,,,,,,,,,,,,,,,,,,,,,,,,,,,,,1856.1921021000016,1856.2107781999948,1856.2107781999948,1856.2107781999948,1856.2107781999948,1856.2107781999948,1856.2107781999948,1860.2632816999976,['r'],1,[4.037812900001882],[None],1860.264280000003,1860.2773670000024,1860.2773670000024,1860.2773670000024,1862.4955268000049,5,2.2138244999950984,5,2.2138244999950984,,,,,,sub75_NB,001,2026-01-28_11h18.04.109,recognitionstage,,2025.1.1,60.007765002791984,2026-01-28 11h18.34.979729 +0530,
,,,38,38,0,34,frames\Vid34_BB_T.png,frames\Vid34_L.png,['l'],1,[4.048804999998538],[None],5,1.4483043999935035,,,,,0,38,38,33,1862.5277555000066,,22,Male,Right handed,Corrected to normal,,,,,,,,,,,,,,,,,,,,,,,,,,,,,,,,,,,,,,,,1862.5064800999971,1862.5277555000066,1862.5277555000066,1862.5277555000066,1862.5277555000066,1862.5277555000066,1862.5277555000066,1866.579501500004,['l'],1,[4.048804999998538],[None],1866.5803749000042,1866.5941768000048,1866.5941768000048,1866.5941768000048,1868.0454573000025,5,1.4483043999935035,5,1.4483043999935035,,,,,,sub75_NB,001,2026-01-28_11h18.04.109,recognitionstage,,2025.1.1,60.007765002791984,2026-01-28 11h18.34.979729 +0530,
,,,39,39,0,5,frames\Vid5_EM_T.png,frames\Vid5_L.png,['r'],1,[3.225909100001445],[None],5,1.0986437999963528,,,,,0,39,39,4,1868.094884200007,,22,Male,Right handed,Corrected to normal,,,,,,,,,,,,,,,,,,,,,,,,,,,,,,,,,,,,,,,,1868.0749308999948,1868.094884200007,1868.094884200007,1868.094884200007,1868.094884200007,1868.094884200007,1868.094884200007,1871.3294683999993,['r'],1,[3.225909100001445],[None],1871.3304348999955,1871.3443728999991,1871.3443728999991,1871.3443728999991,1872.4453819000046,5,1.0986437999963528,5,1.0986437999963528,,,,,,sub75_NB,001,2026-01-28_11h18.04.109,recognitionstage,,2025.1.1,60.007765002791984,2026-01-28 11h18.34.979729 +0530,
,,,,,,,,,,,,,,,,,,,,,,,,,22,Male,Right handed,Corrected to normal,,,,,,,,,,,,,,,,,,,,,,,,,,,,,,,,,,,,,,,,,,,,,,,,,,,,,,,,,,,,,1872.4455022000038,1872.4615099999937,1872.4615099999937,1892.4459541999968,None,sub75_NB,001,2026-01-28_11h18.04.109,recognitionstage,,2025.1.1,60.007765002791984,2026-01-28 11h18.34.979729 +0530,
