path,duration,is_repeat,thisN,thisTrialN,thisRepN,movie_id,target_img,lure_img,resp.keys,resp.corr,resp.rt,resp.duration,conf_radio.response,conf_radio.rt,movie.thisRepN,movie.thisTrialN,movie.thisN,movie.thisIndex,recogloop.thisRepN,recogloop.thisTrialN,recogloop.thisN,recogloop.thisIndex,thisRow.t,notes,age,gender,handedness,vision,caffeine_2h,alcohol_smoke_12h,demographics.started,demographics.stopped,Instructions.started,text1.started,key_resp.started,Instructions.stopped,key_resp.keys,key_resp.rt,key_resp.duration,instruction_2.started,text2.started,key_resp_2.started,instruction_2.stopped,key_resp_2.keys,key_resp_2.rt,key_resp_2.duration,Videos.started,movie_2.started,vigilance_resp.started,movie_2.stopped,Videos.stopped,movie.vigilance_resp.keys,vigilance_pressed,vigilance_correct,ISI.started,text.started,ISI.stopped,text.stopped,movie.vigilance_resp.rt,movie.vigilance_resp.duration,recognition.started,text_4.started,key_resp_3.started,recognition.stopped,key_resp_3.keys,key_resp_3.rt,key_resp_3.duration,recognition_task.started,leftimage.started,rightimage.started,resp.started,frames_question.started,right_label.started,left_label.started,recognition_task.stopped,recogloop.resp.keys,recogloop.resp.corr,recogloop.resp.rt,recogloop.resp.duration,confidence.started,conf_text.started,conf_radio.started,conf_label.started,confidence.stopped,recogloop.conf_radio.response,recogloop.conf_radio.rt,confidence,confidence_rt,thank_you.started,text_6.started,key_resp_4.started,text_6.stopped,key_resp_4.stopped,thank_you.stopped,key_resp_4.keys,participant,session,date,expName,expVersion,psychopyVersion,frameRate,expStart,...105
,,,,,,,,,,,,,,,,,,,,,,,,,28,Male,Right handed,Normal,Caffeine consumed in last 2 hours?,Alcohol or smoking in last 12 hours?,0.01763040000514593,0.02017139999952633,,,,,,,,,,,,,,,,,,,,,,,,,,,,,,,,,,,,,,,,,,,,,,,,,,,,,,,,,,,,,,,,sub71_NB,001,2026-01-27_22h17.02.566,recognitionstage,,2025.1.1,60.11602392433647,2026-01-27 22h17.37.494486 +0530,
,,,,,,,,,,,,,,,,,,,,,,,,,28,Male,Right handed,Normal,,,,,0.0201933999924222,0.03670779999811202,0.03670779999811202,5.522895300004166,space,5.468925599998329,None,,,,,,,,,,,,,,,,,,,,,,,,,,,,,,,,,,,,,,,,,,,,,,,,,,,,,,,,,sub71_NB,001,2026-01-27_22h17.02.566,recognitionstage,,2025.1.1,60.11602392433647,2026-01-27 22h17.37.494486 +0530,
,,,,,,,,,,,,,,,,,,,,,,,,,28,Male,Right handed,Normal,,,,,,,,,,,,5.522970999998506,5.538573700003326,5.538573700003326,13.206206400005613,space,7.6630198000057135,None,,,,,,,,,,,,,,,,,,,,,,,,,,,,,,,,,,,,,,,,,,,,,,,,,,sub71_NB,001,2026-01-27_22h17.02.566,recognitionstage,,2025.1.1,60.11602392433647,2026-01-27 22h17.37.494486 +0530,
Trimmed_videos/natural_7.mp4,26,1,44,44,0,,,,,,,,,,0,44,44,8,,,,,1571.419612400001,,28,Male,Right handed,Normal,,,,,,,,,,,,,,,,,,,1571.3746701999917,1571.419612400001,1571.419612400001,1598.3525359999912,1598.2094212999946,None,0,0,1598.3452963000018,1598.3525359999912,1600.8395439000014,1600.8546133000054,6.3119484999915585,None,1600.839638999998,1600.8546133000054,1600.8546133000054,1621.0220464000013,space,20.1632368999999,None,,,,,,,,,,,,,,,,,,,,,,,,,,,,,sub71_NB,001,2026-01-27_22h17.02.566,recognitionstage,,2025.1.1,60.11602392433647,2026-01-27 22h17.37.494486 +0530,
,,,0,0,0,11,frames\Vid11_EM_T.png,frames\Vid11_L.png,['r'],1,[5.42828290000034],[None],2,5.883166800005711,,,,,0,0,0,10,1621.0854379999946,,28,Male,Right handed,Normal,,,,,,,,,,,,,,,,,,,,,,,,,,,,,,,,,,,,,,,,1621.073744399997,1621.0854379999946,1621.0854379999946,1621.0854379999946,1621.0854379999946,1621.0854379999946,1621.0854379999946,1626.5213503999985,['r'],1,[5.42828290000034],[None],1626.522132099999,1626.5367883,1626.5367883,1626.5367883,1632.4202278000012,2,5.883166800005711,2,5.883166800005711,,,,,,,,sub71_NB,001,2026-01-27_22h17.02.566,recognitionstage,,2025.1.1,60.11602392433647,2026-01-27 22h17.37.494486 +0530,
,,,1,1,0,35,frames\Vid35_EM_T.png,frames\Vid35_L.png,['r'],1,[6.997865800003638],[None],3,4.415770000006887,,,,,0,1,1,34,1632.451916399994,,28,Male,Right handed,Normal,,,,,,,,,,,,,,,,,,,,,,,,,,,,,,,,,,,,,,,,1632.4451805999997,1632.451916399994,1632.451916399994,1632.451916399994,1632.451916399994,1632.451916399994,1632.451916399994,1639.4547956000024,['r'],1,[6.997865800003638],[None],1639.4557129000023,1639.4700765000016,1639.4700765000016,1639.4700765000016,1643.8876746000024,3,4.415770000006887,3,4.415770000006887,,,,,,,,sub71_NB,001,2026-01-27_22h17.02.566,recognitionstage,,2025.1.1,60.11602392433647,2026-01-27 22h17.37.494486 +0530,
,,,2,2,0,36,frames\Vid36_BB_T.png,frames\Vid36_L.png,['l'],1,[3.5699485999939498],[None],4,2.214365200008615,,,,,0,2,2,35,1643.9197605999943,,28,Male,Right handed,Normal,,,,,,,,,,,,,,,,,,,,,,,,,,,,,,,,,,,,,,,,1643.901065500002,1643.9197605999943,1643.9197605999943,1643.9197605999943,1643.9197605999943,1643.9197605999943,1643.9197605999943,1647.5055734000052,['l'],1,[3.5699485999939498],[None],1647.5065241999982,1647.5198306999955,1647.5198306999955,1647.5198306999955,1649.737882500005,4,2.214365200008615,4,2.214365200008615,,,,,,,,sub71_NB,001,2026-01-27_22h17.02.566,recognitionstage,,2025.1.1,60.11602392433647,2026-01-27 22h17.37.494486 +0530,
,,,3,3,0,5,frames\Vid5_EM_T.png,frames\Vid5_L.png,['l'],1,[6.166397400011192],[None],5,2.4822928000066895,,,,,0,3,3,4,1649.7873174999986,,28,Male,Right handed,Normal,,,,,,,,,,,,,,,,,,,,,,,,,,,,,,,,,,,,,,,,1649.767712300003,1649.7873174999986,1649.7873174999986,1649.7873174999986,1649.7873174999986,1649.7873174999986,1649.7873174999986,1655.9548438000056,['l'],1,[6.166397400011192],[None],1655.9556353999942,1655.9700570999994,1655.9700570999994,1655.9700570999994,1658.4540475999966,5,2.4822928000066895,5,2.4822928000066895,,,,,,,,sub71_NB,001,2026-01-27_22h17.02.566,recognitionstage,,2025.1.1,60.11602392433647,2026-01-27 22h17.37.494486 +0530,
,,,4,4,0,10,frames\Vid10_BB_T.png,frames\Vid10_L.png,['l'],1,[6.087948699991102],[None],5,1.7814314999995986,,,,,0,4,4,9,1658.5058267999993,,28,Male,Right handed,Normal,,,,,,,,,,,,,,,,,,,,,,,,,,,,,,,,,,,,,,,,1658.4976539999916,1658.5058267999993,1658.5058267999993,1658.5058267999993,1658.5058267999993,1658.5058267999993,1658.5058267999993,1664.605369500001,['l'],1,[6.087948699991102],[None],1664.606435900001,1664.6201709000015,1664.6201709000015,1664.6201709000015,1666.4035177000042,5,1.7814314999995986,5,1.7814314999995986,,,,,,,,sub71_NB,001,2026-01-27_22h17.02.566,recognitionstage,,2025.1.1,60.11602392433647,2026-01-27 22h17.37.494486 +0530,
,,,5,5,0,22,frames\Vid22_EM_T.png,frames\Vid22_L.png,['r'],1,[6.866439799996442],[None],4,4.596470099990256,,,,,0,5,5,21,1666.4398426999978,,28,Male,Right handed,Normal,,,,,,,,,,,,,,,,,,,,,,,,,,,,,,,,,,,,,,,,1666.4149698999972,1666.4398426999978,1666.4398426999978,1666.4398426999978,1666.4398426999978,1666.4398426999978,1666.4398426999978,1673.3232867000042,['r'],1,[6.866439799996442],[None],1673.3246670999943,1673.3363910000044,1673.3363910000044,1673.3363910000044,1677.9371284999943,4,4.596470099990256,4,4.596470099990256,,,,,,,,sub71_NB,001,2026-01-27_22h17.02.566,recognitionstage,,2025.1.1,60.11602392433647,2026-01-27 22h17.37.494486 +0530,
,,,6,6,0,20,frames\Vid20_EM_T.png,frames\Vid20_L.png,['r'],1,[6.25458960000833],[None],1,3.3299197999876924,,,,,0,6,6,19,1677.9553249000019,,28,Male,Right handed,Normal,,,,,,,,,,,,,,,,,,,,,,,,,,,,,,,,,,,,,,,,1677.9435978999973,1677.9553249000019,1677.9553249000019,1677.9553249000019,1677.9553249000019,1677.9553249000019,1677.9553249000019,1684.2235399999918,['r'],1,[6.25458960000833],[None],1684.2246500000037,1684.236659999995,1684.236659999995,1684.236659999995,1687.5702653000044,1,3.3299197999876924,1,3.3299197999876924,,,,,,,,sub71_NB,001,2026-01-27_22h17.02.566,recognitionstage,,2025.1.1,60.11602392433647,2026-01-27 22h17.37.494486 +0530,
,,,7,7,0,25,frames\Vid25_BB_T.png,frames\Vid25_L.png,['l'],0,[6.253276800009189],[None],2,0.9975359999953071,,,,,0,7,7,24,1687.5884762999922,,28,Male,Right handed,Normal,,,,,,,,,,,,,,,,,,,,,,,,,,,,,,,,,,,,,,,,1687.5798514000053,1687.5884762999922,1687.5884762999922,1687.5884762999922,1687.5884762999922,1687.5884762999922,1687.5884762999922,1693.8563614000013,['l'],0,[6.253276800009189],[None],1693.8576583999966,1693.8699141999969,1693.8699141999969,1693.8699141999969,1694.8705978999933,2,0.9975359999953071,2,0.9975359999953071,,,,,,,,sub71_NB,001,2026-01-27_22h17.02.566,recognitionstage,,2025.1.1,60.11602392433647,2026-01-27 22h17.37.494486 +0530,
,,,8,8,0,3,frames\Vid3_BB_T.png,frames\Vid3_L.png,['l'],1,[2.505421000008937],[None],5,1.1645418999978574,,,,,0,8,8,2,1694.9204628000007,,28,Male,Right handed,Normal,,,,,,,,,,,,,,,,,,,,,,,,,,,,,,,,,,,,,,,,1694.9112352999946,1694.9204628000007,1694.9204628000007,1694.9204628000007,1694.9204628000007,1694.9204628000007,1694.9204628000007,1697.4389144000015,['l'],1,[2.505421000008937],[None],1697.4398322999914,1697.453026999996,1697.453026999996,1697.453026999996,1698.6201807000034,5,1.1645418999978574,5,1.1645418999978574,,,,,,,,sub71_NB,001,2026-01-27_22h17.02.566,recognitionstage,,2025.1.1,60.11602392433647,2026-01-27 22h17.37.494486 +0530,
,,,9,9,0,2,frames\Vid2_BB_T.png,frames\Vid2_L.png,['l'],1,[3.4167119999910938],[None],3,2.8975349999964237,,,,,0,9,9,1,1698.673276799993,,28,Male,Right handed,Normal,,,,,,,,,,,,,,,,,,,,,,,,,,,,,,,,,,,,,,,,1698.6573840999918,1698.673276799993,1698.673276799993,1698.673276799993,1698.673276799993,1698.673276799993,1698.673276799993,1702.1055939999933,['l'],1,[3.4167119999910938],[None],1702.1069771000039,1702.1205358000007,1702.1205358000007,1702.1205358000007,1705.0206384000048,3,2.8975349999964237,3,2.8975349999964237,,,,,,,,sub71_NB,001,2026-01-27_22h17.02.566,recognitionstage,,2025.1.1,60.11602392433647,2026-01-27 22h17.37.494486 +0530,
,,,10,10,0,23,frames\Vid23_EM_T.png,frames\Vid23_L.png,['l'],1,[2.4573386999982176],[None],3,1.0154853999993065,,,,,0,10,10,22,1705.0564865000051,,28,Male,Right handed,Normal,,,,,,,,,,,,,,,,,,,,,,,,,,,,,,,,,,,,,,,,1705.0358545000054,1705.0564865000051,1705.0564865000051,1705.0564865000051,1705.0564865000051,1705.0564865000051,1705.0564865000051,1707.5213692999969,['l'],1,[2.4573386999982176],[None],1707.5223146999924,1707.536778900001,1707.536778900001,1707.536778900001,1708.5541413000028,3,1.0154853999993065,3,1.0154853999993065,,,,,,,,sub71_NB,001,2026-01-27_22h17.02.566,recognitionstage,,2025.1.1,60.11602392433647,2026-01-27 22h17.37.494486 +0530,
,,,11,11,0,18,frames\Vid18_EM_T.png,frames\Vid18_L.png,['l'],1,[3.326962699997239],[None],4,2.031483200000366,,,,,0,11,11,17,1708.5867429999926,,28,Male,Right handed,Normal,,,,,,,,,,,,,,,,,,,,,,,,,,,,,,,,,,,,,,,,1708.5649966000055,1708.5867429999926,1708.5867429999926,1708.5867429999926,1708.5867429999926,1708.5867429999926,1708.5867429999926,1711.9214988000022,['l'],1,[3.326962699997239],[None],1711.9224619000015,1711.9370000999916,1711.9370000999916,1711.9370000999916,1713.971327799998,4,2.031483200000366,4,2.031483200000366,,,,,,,,sub71_NB,001,2026-01-27_22h17.02.566,recognitionstage,,2025.1.1,60.11602392433647,2026-01-27 22h17.37.494486 +0530,
,,,12,12,0,30,frames\Vid30_EM_T.png,frames\Vid30_L.png,['l'],1,[6.022563099992112],[None],1,1.248660999990534,,,,,0,12,12,29,1714.0034287000017,,28,Male,Right handed,Normal,,,,,,,,,,,,,,,,,,,,,,,,,,,,,,,,,,,,,,,,1713.9825455999962,1714.0034287000017,1714.0034287000017,1714.0034287000017,1714.0034287000017,1714.0034287000017,1714.0034287000017,1720.038850900004,['l'],1,[6.022563099992112],[None],1720.0398485000042,1720.054094399995,1720.054094399995,1720.054094399995,1721.303746999998,1,1.248660999990534,1,1.248660999990534,,,,,,,,sub71_NB,001,2026-01-27_22h17.02.566,recognitionstage,,2025.1.1,60.11602392433647,2026-01-27 22h17.37.494486 +0530,
,,,13,13,0,37,frames\Vid37_BB_T.png,frames\Vid37_L.png,['l'],1,[2.8411239000124624],[None],5,2.064231900003506,,,,,0,13,13,36,1721.3367773999926,,28,Male,Right handed,Normal,,,,,,,,,,,,,,,,,,,,,,,,,,,,,,,,,,,,,,,,1721.3149389000027,1721.3367773999926,1721.3367773999926,1721.3367773999926,1721.3367773999926,1721.3367773999926,1721.3367773999926,1724.1892997999967,['l'],1,[2.8411239000124624],[None],1724.1902898999979,1724.2030565000023,1724.2030565000023,1724.2030565000023,1726.2705396999954,5,2.064231900003506,5,2.064231900003506,,,,,,,,sub71_NB,001,2026-01-27_22h17.02.566,recognitionstage,,2025.1.1,60.11602392433647,2026-01-27 22h17.37.494486 +0530,
,,,14,14,0,4,frames\Vid4_EM_T.png,frames\Vid4_L.png,['r'],0,[3.1123165000026347],[None],5,1.8315067999938037,,,,,0,14,14,3,1726.3375156999973,,28,Male,Right handed,Normal,,,,,,,,,,,,,,,,,,,,,,,,,,,,,,,,,,,,,,,,1726.3154504999984,1726.3375156999973,1726.3375156999973,1726.3375156999973,1726.3375156999973,1726.3375156999973,1726.3375156999973,1729.4552966000047,['r'],0,[3.1123165000026347],[None],1729.4561283999938,1729.4696164000052,1729.4696164000052,1729.4696164000052,1731.3039140000037,5,1.8315067999938037,5,1.8315067999938037,,,,,,,,sub71_NB,001,2026-01-27_22h17.02.566,recognitionstage,,2025.1.1,60.11602392433647,2026-01-27 22h17.37.494486 +0530,
,,,15,15,0,21,frames\Vid21_BB_T.png,frames\Vid21_L.png,['r'],1,[2.7502562000008766],[None],4,1.2155080999946222,,,,,0,15,15,20,1731.3394383999985,,28,Male,Right handed,Normal,,,,,,,,,,,,,,,,,,,,,,,,,,,,,,,,,,,,,,,,1731.3181508999987,1731.3394383999985,1731.3394383999985,1731.3394383999985,1731.3394383999985,1731.3394383999985,1731.3394383999985,1734.104818599997,['r'],1,[2.7502562000008766],[None],1734.1057572999998,1734.1200917999959,1734.1200917999959,1734.1200917999959,1735.337447400001,4,1.2155080999946222,4,1.2155080999946222,,,,,,,,sub71_NB,001,2026-01-27_22h17.02.566,recognitionstage,,2025.1.1,60.11602392433647,2026-01-27 22h17.37.494486 +0530,
,,,16,16,0,6,frames\Vid6_BB_T.png,frames\Vid6_L.png,['r'],1,[2.293980799993733],[None],5,1.0314703000040026,,,,,0,16,16,5,1735.403990699997,,28,Male,Right handed,Normal,,,,,,,,,,,,,,,,,,,,,,,,,,,,,,,,,,,,,,,,1735.382631600005,1735.403990699997,1735.403990699997,1735.403990699997,1735.403990699997,1735.403990699997,1735.403990699997,1737.7049789000012,['r'],1,[2.293980799993733],[None],1737.7059146999964,1737.7201692999952,1737.7201692999952,1737.7201692999952,1738.754768800005,5,1.0314703000040026,5,1.0314703000040026,,,,,,,,sub71_NB,001,2026-01-27_22h17.02.566,recognitionstage,,2025.1.1,60.11602392433647,2026-01-27 22h17.37.494486 +0530,
,,,17,17,0,14,frames\Vid14_BB_T.png,frames\Vid14_L.png,['l'],1,[3.0102573999902233],[None],4,1.5126834999973653,,,,,0,17,17,13,1738.8237795000023,,28,Male,Right handed,Normal,,,,,,,,,,,,,,,,,,,,,,,,,,,,,,,,,,,,,,,,1738.8014910999918,1738.8237795000023,1738.8237795000023,1738.8237795000023,1738.8237795000023,1738.8237795000023,1738.8237795000023,1741.8401516000013,['l'],1,[3.0102573999902233],[None],1741.8416157000029,1741.8687086999998,1741.8687086999998,1741.8687086999998,1743.3703725999949,4,1.5126834999973653,4,1.5126834999973653,,,,,,,,sub71_NB,001,2026-01-27_22h17.02.566,recognitionstage,,2025.1.1,60.11602392433647,2026-01-27 22h17.37.494486 +0530,
,,,18,18,0,8,frames\Vid8_BB_T.png,frames\Vid8_L.png,['l'],1,[14.554729299998144],[None],4,1.9483402000041679,,,,,0,18,18,7,1743.4233785999968,,28,Male,Right handed,Normal,,,,,,,,,,,,,,,,,,,,,,,,,,,,,,,,,,,,,,,,1743.4069616000052,1743.4233785999968,1743.4233785999968,1743.4233785999968,1743.4233785999968,1743.4233785999968,1743.4233785999968,1757.9885312999977,['l'],1,[14.554729299998144],[None],1757.9895173999976,1758.003438300002,1758.003438300002,1758.003438300002,1759.9540562000038,4,1.9483402000041679,4,1.9483402000041679,,,,,,,,sub71_NB,001,2026-01-27_22h17.02.566,recognitionstage,,2025.1.1,60.11602392433647,2026-01-27 22h17.37.494486 +0530,
,,,19,19,0,12,frames\Vid12_EM_T.png,frames\Vid12_L.png,['r'],1,[2.570517200001632],[None],5,2.1638536999962525,,,,,0,19,19,11,1760.0233568999975,,28,Male,Right handed,Normal,,,,,,,,,,,,,,,,,,,,,,,,,,,,,,,,,,,,,,,,1759.9985873999976,1760.0233568999975,1760.0233568999975,1760.0233568999975,1760.0233568999975,1760.0233568999975,1760.0233568999975,1762.6061683000007,['r'],1,[2.570517200001632],[None],1762.6072832999926,1762.6196429999982,1762.6196429999982,1762.6196429999982,1764.787428399999,5,2.1638536999962525,5,2.1638536999962525,,,,,,,,sub71_NB,001,2026-01-27_22h17.02.566,recognitionstage,,2025.1.1,60.11602392433647,2026-01-27 22h17.37.494486 +0530,
,,,20,20,0,15,frames\Vid15_BB_T.png,frames\Vid15_L.png,['r'],1,[2.721046099992236],[None],5,1.0656888000085019,,,,,0,20,20,14,1764.8567355999985,,28,Male,Right handed,Normal,,,,,,,,,,,,,,,,,,,,,,,,,,,,,,,,,,,,,,,,1764.835738099995,1764.8567355999985,1764.8567355999985,1764.8567355999985,1764.8567355999985,1764.8567355999985,1764.8567355999985,1767.5881284999923,['r'],1,[2.721046099992236],[None],1767.5891756999918,1767.6033246000006,1767.6033246000006,1767.6033246000006,1768.670981999996,5,1.0656888000085019,5,1.0656888000085019,,,,,,,,sub71_NB,001,2026-01-27_22h17.02.566,recognitionstage,,2025.1.1,60.11602392433647,2026-01-27 22h17.37.494486 +0530,
,,,21,21,0,32,frames\Vid32_EM_T.png,frames\Vid32_L.png,['r'],1,[1.9676318999991054],[None],5,1.0485031999996863,,,,,0,21,21,31,1768.7061568999925,,28,Male,Right handed,Normal,,,,,,,,,,,,,,,,,,,,,,,,,,,,,,,,,,,,,,,,1768.6847475999966,1768.7061568999925,1768.7061568999925,1768.7061568999925,1768.7061568999925,1768.7061568999925,1768.7061568999925,1770.6884338999953,['r'],1,[1.9676318999991054],[None],1770.6892337000027,1770.7031204999948,1770.7031204999948,1770.7031204999948,1771.754925000001,5,1.0485031999996863,5,1.0485031999996863,,,,,,,,sub71_NB,001,2026-01-27_22h17.02.566,recognitionstage,,2025.1.1,60.11602392433647,2026-01-27 22h17.37.494486 +0530,
,,,22,22,0,26,frames\Vid26_EM_T.png,frames\Vid26_L.png,['l'],1,[5.462900999991689],[None],4,3.700741900000139,,,,,0,22,22,25,1771.7869043999963,,28,Male,Right handed,Normal,,,,,,,,,,,,,,,,,,,,,,,,,,,,,,,,,,,,,,,,1771.7695037999947,1771.7869043999963,1771.7869043999963,1771.7869043999963,1771.7869043999963,1771.7869043999963,1771.7869043999963,1777.2551558999985,['l'],1,[5.462900999991689],[None],1777.2562460000045,1777.2700721,1777.2700721,1777.2700721,1780.9714860999957,4,3.700741900000139,4,3.700741900000139,,,,,,,,sub71_NB,001,2026-01-27_22h17.02.566,recognitionstage,,2025.1.1,60.11602392433647,2026-01-27 22h17.37.494486 +0530,
,,,23,23,0,13,frames\Vid13_BB_T.png,frames\Vid13_L.png,['l'],1,[3.788836599997012],[None],1,1.015789600001881,,,,,0,23,23,12,1781.0208623999933,,28,Male,Right handed,Normal,,,,,,,,,,,,,,,,,,,,,,,,,,,,,,,,,,,,,,,,1781.0054404999973,1781.0208623999933,1781.0208623999933,1781.0208623999933,1781.0208623999933,1781.0208623999933,1781.0208623999933,1784.821304600002,['l'],1,[3.788836599997012],[None],1784.8220925999922,1784.8367541000043,1784.8367541000043,1784.8367541000043,1785.8542048999952,1,1.015789600001881,1,1.015789600001881,,,,,,,,sub71_NB,001,2026-01-27_22h17.02.566,recognitionstage,,2025.1.1,60.11602392433647,2026-01-27 22h17.37.494486 +0530,
,,,24,24,0,31,frames\Vid31_EM_T.png,frames\Vid31_L.png,['r'],1,[2.2558788000023924],[None],2,0.8486632999993162,,,,,0,24,24,30,1785.8898269000056,,28,Male,Right handed,Normal,,,,,,,,,,,,,,,,,,,,,,,,,,,,,,,,,,,,,,,,1785.8659310999938,1785.8898269000056,1785.8898269000056,1785.8898269000056,1785.8898269000056,1785.8898269000056,1785.8898269000056,1788.1547999000031,['r'],1,[2.2558788000023924],[None],1788.1557513000007,1788.1701118999918,1788.1701118999918,1788.1701118999918,1789.0207552999927,2,0.8486632999993162,2,0.8486632999993162,,,,,,,,sub71_NB,001,2026-01-27_22h17.02.566,recognitionstage,,2025.1.1,60.11602392433647,2026-01-27 22h17.37.494486 +0530,
,,,25,25,0,29,frames\Vid29_BB_T.png,frames\Vid29_L.png,['l'],1,[2.5006475999980466],[None],3,1.2317359000007855,,,,,0,25,25,28,1789.0532279000035,,28,Male,Right handed,Normal,,,,,,,,,,,,,,,,,,,,,,,,,,,,,,,,,,,,,,,,1789.032933800001,1789.0532279000035,1789.0532279000035,1789.0532279000035,1789.0532279000035,1789.0532279000035,1789.0532279000035,1791.5721103999967,['l'],1,[2.5006475999980466],[None],1791.5726635000028,1791.5866205000057,1791.5866205000057,1791.5866205000057,1792.8209048999997,3,1.2317359000007855,3,1.2317359000007855,,,,,,,,sub71_NB,001,2026-01-27_22h17.02.566,recognitionstage,,2025.1.1,60.11602392433647,2026-01-27 22h17.37.494486 +0530,
,,,26,26,0,39,frames\Vid39_BB_T.png,frames\Vid39_L.png,['l'],0,[7.580382300002384],[None],3,1.0981732000072952,,,,,0,26,26,38,1792.8534618999984,,28,Male,Right handed,Normal,,,,,,,,,,,,,,,,,,,,,,,,,,,,,,,,,,,,,,,,1792.8311496999959,1792.8534618999984,1792.8534618999984,1792.8534618999984,1792.8534618999984,1792.8534618999984,1792.8534618999984,1800.439678099996,['l'],0,[7.580382300002384],[None],1800.4408079999994,1800.4531935999985,1800.4531935999985,1800.4531935999985,1801.5541652999964,3,1.0981732000072952,3,1.0981732000072952,,,,,,,,sub71_NB,001,2026-01-27_22h17.02.566,recognitionstage,,2025.1.1,60.11602392433647,2026-01-27 22h17.37.494486 +0530,
,,,27,27,0,17,frames\Vid17_BB_T.png,frames\Vid17_L.png,['l'],1,[4.615014900002279],[None],4,1.3318602000072133,,,,,0,27,27,16,1801.5867515999998,,28,Male,Right handed,Normal,,,,,,,,,,,,,,,,,,,,,,,,,,,,,,,,,,,,,,,,1801.579180300003,1801.5867515999998,1801.5867515999998,1801.5867515999998,1801.5867515999998,1801.5867515999998,1801.5867515999998,1806.205468500004,['l'],1,[4.615014900002279],[None],1806.2063077000057,1806.2198763999913,1806.2198763999913,1806.2198763999913,1807.553881300002,4,1.3318602000072133,4,1.3318602000072133,,,,,,,,sub71_NB,001,2026-01-27_22h17.02.566,recognitionstage,,2025.1.1,60.11602392433647,2026-01-27 22h17.37.494486 +0530,
,,,28,28,0,1,frames\Vid1_EM_T.png,frames\Vid1_L.png,['l'],1,[1.939949899999192],[None],5,1.3146373000054155,,,,,0,28,28,0,1807.6218468000006,,28,Male,Right handed,Normal,,,,,,,,,,,,,,,,,,,,,,,,,,,,,,,,,,,,,,,,1807.600113499997,1807.6218468000006,1807.6218468000006,1807.6218468000006,1807.6218468000006,1807.6218468000006,1807.6218468000006,1809.5722326999967,['l'],1,[1.939949899999192],[None],1809.5728904999996,1809.5863911999913,1809.5863911999913,1809.5863911999913,1810.904892199993,5,1.3146373000054155,5,1.3146373000054155,,,,,,,,sub71_NB,001,2026-01-27_22h17.02.566,recognitionstage,,2025.1.1,60.11602392433647,2026-01-27 22h17.37.494486 +0530,
,,,29,29,0,19,frames\Vid19_BB_T.png,frames\Vid19_L.png,['r'],0,[4.085889299996779],[None],4,1.1152025000046706,,,,,0,29,29,18,1810.9399754000042,,28,Male,Right handed,Normal,,,,,,,,,,,,,,,,,,,,,,,,,,,,,,,,,,,,,,,,1810.9183746999915,1810.9399754000042,1810.9399754000042,1810.9399754000042,1810.9399754000042,1810.9399754000042,1810.9399754000042,1815.0389482000028,['r'],0,[4.085889299996779],[None],1815.0402388999937,1815.0535417999927,1815.0535417999927,1815.0535417999927,1816.1704879000026,4,1.1152025000046706,4,1.1152025000046706,,,,,,,,sub71_NB,001,2026-01-27_22h17.02.566,recognitionstage,,2025.1.1,60.11602392433647,2026-01-27 22h17.37.494486 +0530,
,,,30,30,0,24,frames\Vid24_BB_T.png,frames\Vid24_L.png,['r'],1,[3.126402199995937],[None],4,1.2984068999940064,,,,,0,30,30,23,1816.2034277000057,,28,Male,Right handed,Normal,,,,,,,,,,,,,,,,,,,,,,,,,,,,,,,,,,,,,,,,1816.1844054999965,1816.2034277000057,1816.2034277000057,1816.2034277000057,1816.2034277000057,1816.2034277000057,1816.2034277000057,1819.3384174999956,['r'],1,[3.126402199995937],[None],1819.3396174999943,1819.3535240000056,1819.3535240000056,1819.3535240000056,1820.6547653000016,4,1.2984068999940064,4,1.2984068999940064,,,,,,,,sub71_NB,001,2026-01-27_22h17.02.566,recognitionstage,,2025.1.1,60.11602392433647,2026-01-27 22h17.37.494486 +0530,
,,,31,31,0,28,frames\Vid28_EM_T.png,frames\Vid28_L.png,['l'],1,[5.898765099991579],[None],5,0.8821991000004346,,,,,0,31,31,27,1820.6870441999927,,28,Male,Right handed,Normal,,,,,,,,,,,,,,,,,,,,,,,,,,,,,,,,,,,,,,,,1820.6660765999986,1820.6870441999927,1820.6870441999927,1820.6870441999927,1820.6870441999927,1820.6870441999927,1820.6870441999927,1826.5882811000047,['l'],1,[5.898765099991579],[None],1826.589160699994,1826.6036477000016,1826.6036477000016,1826.6036477000016,1827.4871437999973,5,0.8821991000004346,5,0.8821991000004346,,,,,,,,sub71_NB,001,2026-01-27_22h17.02.566,recognitionstage,,2025.1.1,60.11602392433647,2026-01-27 22h17.37.494486 +0530,
,,,32,32,0,33,frames\Vid33_BB_T.png,frames\Vid33_L.png,['r'],1,[4.000958199991146],[None],4,0.9315085999987787,,,,,0,32,32,32,1827.5051066000015,,28,Male,Right handed,Normal,,,,,,,,,,,,,,,,,,,,,,,,,,,,,,,,,,,,,,,,1827.4958869999973,1827.5051066000015,1827.5051066000015,1827.5051066000015,1827.5051066000015,1827.5051066000015,1827.5051066000015,1831.522203799992,['r'],1,[4.000958199991146],[None],1831.5232690999983,1831.536852899997,1831.536852899997,1831.536852899997,1832.4713863999932,4,0.9315085999987787,4,0.9315085999987787,,,,,,,,sub71_NB,001,2026-01-27_22h17.02.566,recognitionstage,,2025.1.1,60.11602392433647,2026-01-27 22h17.37.494486 +0530,
,,,33,33,0,34,frames\Vid34_BB_T.png,frames\Vid34_L.png,['r'],1,[4.401515800011111],[None],3,1.015030199996545,,,,,0,33,33,33,1832.4882529000024,,28,Male,Right handed,Normal,,,,,,,,,,,,,,,,,,,,,,,,,,,,,,,,,,,,,,,,1832.4808210000047,1832.4882529000024,1832.4882529000024,1832.4882529000024,1832.4882529000024,1832.4882529000024,1832.4882529000024,1836.9050160000043,['r'],1,[4.401515800011111],[None],1836.9058009,1836.9197583999921,1836.9197583999921,1836.9197583999921,1837.9373612999916,3,1.015030199996545,3,1.015030199996545,,,,,,,,sub71_NB,001,2026-01-27_22h17.02.566,recognitionstage,,2025.1.1,60.11602392433647,2026-01-27 22h17.37.494486 +0530,
,,,34,34,0,27,frames\Vid27_BB_T.png,frames\Vid27_L.png,['l'],1,[2.2308379000023706],[None],3,0.965773400006583,,,,,0,34,34,26,1837.9550688000018,,28,Male,Right handed,Normal,,,,,,,,,,,,,,,,,,,,,,,,,,,,,,,,,,,,,,,,1837.945696900002,1837.9550688000018,1837.9550688000018,1837.9550688000018,1837.9550688000018,1837.9550688000018,1837.9550688000018,1840.1886215999984,['l'],1,[2.2308379000023706],[None],1840.189444699994,1840.2035955000028,1840.2035955000028,1840.2035955000028,1841.171333899998,3,0.965773400006583,3,0.965773400006583,,,,,,,,sub71_NB,001,2026-01-27_22h17.02.566,recognitionstage,,2025.1.1,60.11602392433647,2026-01-27 22h17.37.494486 +0530,
,,,35,35,0,16,frames\Vid16_EM_T.png,frames\Vid16_L.png,['r'],1,[12.65322649999871],[None],4,1.3306178999919211,,,,,0,35,35,15,1841.2206117000023,,28,Male,Right handed,Normal,,,,,,,,,,,,,,,,,,,,,,,,,,,,,,,,,,,,,,,,1841.2109656999964,1841.2206117000023,1841.2206117000023,1841.2206117000023,1841.2206117000023,1841.2206117000023,1841.2206117000023,1853.888782599999,['r'],1,[12.65322649999871],[None],1853.890004899993,1853.9034979999997,1853.9034979999997,1853.9034979999997,1855.2373570999916,4,1.3306178999919211,4,1.3306178999919211,,,,,,,,sub71_NB,001,2026-01-27_22h17.02.566,recognitionstage,,2025.1.1,60.11602392433647,2026-01-27 22h17.37.494486 +0530,
,,,36,36,0,7,frames\Vid7_EM_T.png,frames\Vid7_L.png,['r'],1,[7.256210000006831],[None],5,1.2983419000083813,,,,,0,36,36,6,1855.289670500002,,28,Male,Right handed,Normal,,,,,,,,,,,,,,,,,,,,,,,,,,,,,,,,,,,,,,,,1855.2809318999934,1855.289670500002,1855.289670500002,1855.289670500002,1855.289670500002,1855.289670500002,1855.289670500002,1862.5549825000053,['r'],1,[7.256210000006831],[None],1862.5558595000039,1862.5701338999934,1862.5701338999934,1862.5701338999934,1863.8710062000027,5,1.2983419000083813,5,1.2983419000083813,,,,,,,,sub71_NB,001,2026-01-27_22h17.02.566,recognitionstage,,2025.1.1,60.11602392433647,2026-01-27 22h17.37.494486 +0530,
,,,37,37,0,40,frames\Vid40_EM_T.png,frames\Vid40_L.png,['l'],1,[3.454956499990658],[None],5,1.281824100005906,,,,,0,37,37,39,1863.8909343999985,,28,Male,Right handed,Normal,,,,,,,,,,,,,,,,,,,,,,,,,,,,,,,,,,,,,,,,1863.8790810999926,1863.8909343999985,1863.8909343999985,1863.8909343999985,1863.8909343999985,1863.8909343999985,1863.8909343999985,1867.3551636000047,['l'],1,[3.454956499990658],[None],1867.3560785000009,1867.3711547999992,1867.3711547999992,1867.3711547999992,1868.654149599999,5,1.281824100005906,5,1.281824100005906,,,,,,,,sub71_NB,001,2026-01-27_22h17.02.566,recognitionstage,,2025.1.1,60.11602392433647,2026-01-27 22h17.37.494486 +0530,
,,,38,38,0,38,frames\Vid38_EM_T.png,frames\Vid38_L.png,['r'],1,[5.307306899994728],[None],1,1.1310792000003858,,,,,0,38,38,37,1868.6865367999999,,28,Male,Right handed,Normal,,,,,,,,,,,,,,,,,,,,,,,,,,,,,,,,,,,,,,,,1868.666683000003,1868.6865367999999,1868.6865367999999,1868.6865367999999,1868.6865367999999,1868.6865367999999,1868.6865367999999,1874.0056037000031,['r'],1,[5.307306899994728],[None],1874.0067444000015,1874.0196887000056,1874.0196887000056,1874.0196887000056,1875.1535842000012,1,1.1310792000003858,1,1.1310792000003858,,,,,,,,sub71_NB,001,2026-01-27_22h17.02.566,recognitionstage,,2025.1.1,60.11602392433647,2026-01-27 22h17.37.494486 +0530,
,,,39,39,0,9,frames\Vid9_EM_T.png,frames\Vid9_L.png,['r'],1,[3.7102283000131138],[None],4,1.0985098999954062,,,,,0,39,39,8,1875.2036914000055,,28,Male,Right handed,Normal,,,,,,,,,,,,,,,,,,,,,,,,,,,,,,,,,,,,,,,,1875.1901896000054,1875.2036914000055,1875.2036914000055,1875.2036914000055,1875.2036914000055,1875.2036914000055,1875.2036914000055,1878.9218869000033,['r'],1,[3.7102283000131138],[None],1878.9226584999997,1878.9364002999937,1878.9364002999937,1878.9364002999937,1880.0376150999946,4,1.0985098999954062,4,1.0985098999954062,,,,,,,,sub71_NB,001,2026-01-27_22h17.02.566,recognitionstage,,2025.1.1,60.11602392433647,2026-01-27 22h17.37.494486 +0530,
,,,,,,,,,,,,,,,,,,,,,,,,,28,Male,Right handed,Normal,,,,,,,,,,,,,,,,,,,,,,,,,,,,,,,,,,,,,,,,,,,,,,,,,,,,,,,,,,,,,1880.037743599998,1880.0546381000022,1880.0546381000022,1900.054604399993,1900.054604399993,1900.037467599992,None,sub71_NB,001,2026-01-27_22h17.02.566,recognitionstage,,2025.1.1,60.11602392433647,2026-01-27 22h17.37.494486 +0530,
