path,duration,is_repeat,thisN,thisTrialN,thisRepN,movie_id,target_img,lure_img,resp.keys,resp.corr,resp.rt,resp.duration,conf_radio.response,conf_radio.rt,movie.thisRepN,movie.thisTrialN,movie.thisN,movie.thisIndex,recogloop.thisRepN,recogloop.thisTrialN,recogloop.thisN,recogloop.thisIndex,thisRow.t,notes,age,gender,handedness,vision,caffeine_2h,alcohol_smoke_12h,demographics.started,demographics.stopped,Instructions.started,text1.started,key_resp.started,Instructions.stopped,key_resp.keys,key_resp.rt,key_resp.duration,instruction_2.started,text2.started,key_resp_2.started,instruction_2.stopped,key_resp_2.keys,key_resp_2.rt,key_resp_2.duration,Videos.started,movie_2.started,vigilance_resp.started,movie_2.stopped,Videos.stopped,movie.vigilance_resp.keys,vigilance_pressed,vigilance_correct,ISI.started,text.started,ISI.stopped,text.stopped,movie.vigilance_resp.rt,movie.vigilance_resp.duration,recognition.started,text_4.started,key_resp_3.started,recognition.stopped,key_resp_3.keys,key_resp_3.rt,key_resp_3.duration,recognition_task.started,leftimage.started,rightimage.started,resp.started,frames_question.started,right_label.started,left_label.started,recognition_task.stopped,recogloop.resp.keys,recogloop.resp.corr,recogloop.resp.rt,recogloop.resp.duration,confidence.started,conf_text.started,conf_radio.started,conf_label.started,confidence.stopped,recogloop.conf_radio.response,recogloop.conf_radio.rt,confidence,confidence_rt,thank_you.started,text_6.started,key_resp_4.started,thank_you.stopped,key_resp_4.keys,participant,session,date,expName,expVersion,psychopyVersion,frameRate,expStart,...103
,,,,,,,,,,,,,,,,,,,,,,,,,25,Female,Right handed,Normal,Caffeine consumed in last 2 hours?,Alcohol or smoking in last 12 hours?,0.01419910001277458,0.01652730000205338,,,,,,,,,,,,,,,,,,,,,,,,,,,,,,,,,,,,,,,,,,,,,,,,,,,,,,,,,,,,,,sub72_NB,001,2026-01-27_22h50.55.025,recognitionstage,,2025.1.1,59.83069110792377,2026-01-27 22h51.56.494719 +0530,
,,,,,,,,,,,,,,,,,,,,,,,,,25,Female,Right handed,Normal,,,,,0.01654870000493247,0.03353210000204854,0.03353210000204854,7.5361690999998245,space,7.500712900000508,None,,,,,,,,,,,,,,,,,,,,,,,,,,,,,,,,,,,,,,,,,,,,,,,,,,,,,,,sub72_NB,001,2026-01-27_22h50.55.025,recognitionstage,,2025.1.1,59.83069110792377,2026-01-27 22h51.56.494719 +0530,
,,,,,,,,,,,,,,,,,,,,,,,,,25,Female,Right handed,Normal,,,,,,,,,,,,7.536226300013368,7.550700500010862,7.550700500010862,15.453085300003295,space,7.88752220000606,None,,,,,,,,,,,,,,,,,,,,,,,,,,,,,,,,,,,,,,,,,,,,,,,,sub72_NB,001,2026-01-27_22h50.55.025,recognitionstage,,2025.1.1,59.83069110792377,2026-01-27 22h51.56.494719 +0530,
Trimmed_videos/natural_12.mp4,48,0,44,44,0,,,,,,,,,,0,44,44,13,,,,,1506.7997901000053,,25,Female,Right handed,Normal,,,,,,,,,,,,,,,,,,,1506.7472740000085,1506.7997901000053,1506.7997901000053,1555.3989839000133,1555.2488928000093,None,0,1,1555.3842390000063,1555.3989839000133,1557.8859177000122,1409.6331737,17.07034500000009,None,1557.8860029000061,1557.900994399999,1557.900994399999,1578.1861549000023,space,20.273492199994507,None,,,,,,,,,,,,,,,,,,,,,,,,,,,sub72_NB,001,2026-01-27_22h50.55.025,recognitionstage,,2025.1.1,59.83069110792377,2026-01-27 22h51.56.494719 +0530,
,,,0,0,0,20,frames\Vid20_EM_T.png,frames\Vid20_L.png,['r'],1,[6.0953919000021415],[None],5,6.015206000010949,,,,,0,0,0,19,1578.215097200009,,25,Female,Right handed,Normal,,,,,,,,,,,,,,,,,,,,,,,,,,,,,,,,,,,,,,,,1578.1998752000072,1578.215097200009,1578.215097200009,1578.215097200009,1578.215097200009,1578.215097200009,1578.215097200009,1584.3182615000114,['r'],1,[6.0953919000021415],[None],1584.3191803000082,1584.333639000004,1584.333639000004,1584.333639000004,1590.3505446000054,5,6.015206000010949,5,6.015206000010949,,,,,,sub72_NB,001,2026-01-27_22h50.55.025,recognitionstage,,2025.1.1,59.83069110792377,2026-01-27 22h51.56.494719 +0530,
,,,1,1,0,7,frames\Vid7_EM_T.png,frames\Vid7_L.png,['l'],1,[4.599067799994373],[None],5,2.0153565000073286,,,,,0,1,1,6,1590.415447300009,,25,Female,Right handed,Normal,,,,,,,,,,,,,,,,,,,,,,,,,,,,,,,,,,,,,,,,1590.3984830000118,1590.415447300009,1590.415447300009,1590.415447300009,1590.415447300009,1590.415447300009,1590.415447300009,1595.018172600001,['l'],1,[4.599067799994373],[None],1595.0190613000013,1595.0333167000063,1595.0333167000063,1595.0333167000063,1597.0502656000026,5,2.0153565000073286,5,2.0153565000073286,,,,,,sub72_NB,001,2026-01-27_22h50.55.025,recognitionstage,,2025.1.1,59.83069110792377,2026-01-27 22h51.56.494719 +0530,
,,,2,2,0,16,frames\Vid16_EM_T.png,frames\Vid16_L.png,['r'],1,[4.786885200010147],[None],5,1.3480607999954373,,,,,0,2,2,15,1597.1157873000047,,25,Female,Right handed,Normal,,,,,,,,,,,,,,,,,,,,,,,,,,,,,,,,,,,,,,,,1597.1005500000028,1597.1157873000047,1597.1157873000047,1597.1157873000047,1597.1157873000047,1597.1157873000047,1597.1157873000047,1601.918523100001,['r'],1,[4.786885200010147],[None],1601.9199510000035,1601.93343070001,1601.93343070001,1601.93343070001,1603.2844086000114,5,1.3480607999954373,5,1.3480607999954373,,,,,,sub72_NB,001,2026-01-27_22h50.55.025,recognitionstage,,2025.1.1,59.83069110792377,2026-01-27 22h51.56.494719 +0530,
,,,3,3,0,40,frames\Vid40_EM_T.png,frames\Vid40_L.png,['r'],1,[4.373857400001725],[None],5,1.2982778000005055,,,,,0,3,3,39,1603.3047124000004,,25,Female,Right handed,Normal,,,,,,,,,,,,,,,,,,,,,,,,,,,,,,,,,,,,,,,,1603.2926253000041,1603.3047124000004,1603.3047124000004,1603.3047124000004,1603.3047124000004,1603.3047124000004,1603.3047124000004,1607.6849498000083,['r'],1,[4.373857400001725],[None],1607.6859056000103,1607.7002554000064,1607.7002554000064,1607.7002554000064,1609.0012736000062,5,1.2982778000005055,5,1.2982778000005055,,,,,,sub72_NB,001,2026-01-27_22h50.55.025,recognitionstage,,2025.1.1,59.83069110792377,2026-01-27 22h51.56.494719 +0530,
,,,4,4,0,33,frames\Vid33_BB_T.png,frames\Vid33_L.png,['l'],1,[3.4294165000028443],[None],5,1.5483916999946814,,,,,0,4,4,32,1609.0331623000093,,25,Female,Right handed,Normal,,,,,,,,,,,,,,,,,,,,,,,,,,,,,,,,,,,,,,,,1609.011049000008,1609.0331623000093,1609.0331623000093,1609.0331623000093,1609.0331623000093,1609.0331623000093,1609.0331623000093,1612.4683806000103,['l'],1,[3.4294165000028443],[None],1612.4692860000068,1612.483433500005,1612.483433500005,1612.483433500005,1614.0342319000047,5,1.5483916999946814,5,1.5483916999946814,,,,,,sub72_NB,001,2026-01-27_22h50.55.025,recognitionstage,,2025.1.1,59.83069110792377,2026-01-27 22h51.56.494719 +0530,
,,,5,5,0,27,frames\Vid27_BB_T.png,frames\Vid27_L.png,['r'],1,[2.796187200001441],[None],5,1.1145461999985855,,,,,0,5,5,26,1614.066485800009,,25,Female,Right handed,Normal,,,,,,,,,,,,,,,,,,,,,,,,,,,,,,,,,,,,,,,,1614.0446530000045,1614.066485800009,1614.066485800009,1614.066485800009,1614.066485800009,1614.066485800009,1614.066485800009,1616.8691150000086,['r'],1,[2.796187200001441],[None],1616.8702479000058,1616.8984897000046,1616.8984897000046,1616.8984897000046,1618.0007417000015,5,1.1145461999985855,5,1.1145461999985855,,,,,,sub72_NB,001,2026-01-27_22h50.55.025,recognitionstage,,2025.1.1,59.83069110792377,2026-01-27 22h51.56.494719 +0530,
,,,6,6,0,5,frames\Vid5_EM_T.png,frames\Vid5_L.png,['l'],1,[3.2364112000068417],[None],5,1.014586400007829,,,,,0,6,6,4,1618.0500799000001,,25,Female,Right handed,Normal,,,,,,,,,,,,,,,,,,,,,,,,,,,,,,,,,,,,,,,,1618.0319615000044,1618.0500799000001,1618.0500799000001,1618.0500799000001,1618.0500799000001,1618.0500799000001,1618.0500799000001,1621.3020023999998,['l'],1,[3.2364112000068417],[None],1621.3028145999997,1621.3165111000126,1621.3165111000126,1621.3165111000126,1622.3343499000039,5,1.014586400007829,5,1.014586400007829,,,,,,sub72_NB,001,2026-01-27_22h50.55.025,recognitionstage,,2025.1.1,59.83069110792377,2026-01-27 22h51.56.494719 +0530,
,,,7,7,0,24,frames\Vid24_BB_T.png,frames\Vid24_L.png,['l'],1,[3.845910799995181],[None],5,1.3302343000104884,,,,,0,7,7,23,1622.3687781000044,,25,Female,Right handed,Normal,,,,,,,,,,,,,,,,,,,,,,,,,,,,,,,,,,,,,,,,1622.3461629000085,1622.3687781000044,1622.3687781000044,1622.3687781000044,1622.3687781000044,1622.3687781000044,1622.3687781000044,1626.219868100001,['l'],1,[3.845910799995181],[None],1626.2208666000079,1626.2329841000028,1626.2329841000028,1626.2329841000028,1627.566942800011,5,1.3302343000104884,5,1.3302343000104884,,,,,,sub72_NB,001,2026-01-27_22h50.55.025,recognitionstage,,2025.1.1,59.83069110792377,2026-01-27 22h51.56.494719 +0530,
,,,8,8,0,31,frames\Vid31_EM_T.png,frames\Vid31_L.png,['r'],1,[6.957279299997026],[None],2,3.6805963999941014,,,,,0,8,8,30,1627.5852932000125,,25,Female,Right handed,Normal,,,,,,,,,,,,,,,,,,,,,,,,,,,,,,,,,,,,,,,,1627.5744984000048,1627.5852932000125,1627.5852932000125,1627.5852932000125,1627.5852932000125,1627.5852932000125,1627.5852932000125,1634.5527072000114,['r'],1,[6.957279299997026],[None],1634.553317900005,1634.5662927000085,1634.5662927000085,1634.5662927000085,1638.250467100006,2,3.6805963999941014,2,3.6805963999941014,,,,,,sub72_NB,001,2026-01-27_22h50.55.025,recognitionstage,,2025.1.1,59.83069110792377,2026-01-27 22h51.56.494719 +0530,
,,,9,9,0,11,frames\Vid11_EM_T.png,frames\Vid11_L.png,['r'],1,[3.2339853000012226],[None],5,1.1485245999938343,,,,,0,9,9,10,1638.3004925999994,,25,Female,Right handed,Normal,,,,,,,,,,,,,,,,,,,,,,,,,,,,,,,,,,,,,,,,1638.2919571000093,1638.3004925999994,1638.3004925999994,1638.3004925999994,1638.3004925999994,1638.3004925999994,1638.3004925999994,1641.5352480000001,['r'],1,[3.2339853000012226],[None],1641.5361934000102,1641.5500347000052,1641.5500347000052,1641.5500347000052,1642.7007721000118,5,1.1485245999938343,5,1.1485245999938343,,,,,,sub72_NB,001,2026-01-27_22h50.55.025,recognitionstage,,2025.1.1,59.83069110792377,2026-01-27 22h51.56.494719 +0530,
,,,10,10,0,15,frames\Vid15_BB_T.png,frames\Vid15_L.png,['l'],1,[4.164590100001078],[None],5,0.8485849999997299,,,,,0,10,10,14,1642.7699471000087,,25,Female,Right handed,Normal,,,,,,,,,,,,,,,,,,,,,,,,,,,,,,,,,,,,,,,,1642.7481541000016,1642.7699471000087,1642.7699471000087,1642.7699471000087,1642.7699471000087,1642.7699471000087,1642.7699471000087,1646.9351208000007,['l'],1,[4.164590100001078],[None],1646.9358608000039,1646.9500950000074,1646.9500950000074,1646.9500950000074,1647.800550400003,5,0.8485849999997299,5,0.8485849999997299,,,,,,sub72_NB,001,2026-01-27_22h50.55.025,recognitionstage,,2025.1.1,59.83069110792377,2026-01-27 22h51.56.494719 +0530,
,,,11,11,0,38,frames\Vid38_EM_T.png,frames\Vid38_L.png,['r'],1,[4.8092086000106065],[None],5,1.08201569999801,,,,,0,11,11,37,1647.8212933000032,,25,Female,Right handed,Normal,,,,,,,,,,,,,,,,,,,,,,,,,,,,,,,,,,,,,,,,1647.8109384000127,1647.8212933000032,1647.8212933000032,1647.8212933000032,1647.8212933000032,1647.8212933000032,1647.8212933000032,1652.6350005000131,['r'],1,[4.8092086000106065],[None],1652.63596520001,1652.6500420000084,1652.6500420000084,1652.6500420000084,1653.7345861000067,5,1.08201569999801,5,1.08201569999801,,,,,,sub72_NB,001,2026-01-27_22h50.55.025,recognitionstage,,2025.1.1,59.83069110792377,2026-01-27 22h51.56.494719 +0530,
,,,12,12,0,19,frames\Vid19_BB_T.png,frames\Vid19_L.png,['l'],1,[2.6721226000081515],[None],5,0.9991836999979569,,,,,0,12,12,18,1653.766354899999,,25,Female,Right handed,Normal,,,,,,,,,,,,,,,,,,,,,,,,,,,,,,,,,,,,,,,,1653.747342600007,1653.766354899999,1653.766354899999,1653.766354899999,1653.766354899999,1653.766354899999,1653.766354899999,1656.4517454000015,['l'],1,[2.6721226000081515],[None],1656.4522232000018,1656.4665631000098,1656.4665631000098,1656.4665631000098,1657.4669371000055,5,0.9991836999979569,5,0.9991836999979569,,,,,,sub72_NB,001,2026-01-27_22h50.55.025,recognitionstage,,2025.1.1,59.83069110792377,2026-01-27 22h51.56.494719 +0530,
,,,13,13,0,18,frames\Vid18_EM_T.png,frames\Vid18_L.png,['r'],1,[5.266647600001306],[None],2,2.580939200008288,,,,,0,13,13,17,1657.500120200013,,25,Female,Right handed,Normal,,,,,,,,,,,,,,,,,,,,,,,,,,,,,,,,,,,,,,,,1657.478658500011,1657.500120200013,1657.500120200013,1657.500120200013,1657.500120200013,1657.500120200013,1657.500120200013,1662.7697752000095,['r'],1,[5.266647600001306],[None],1662.771135300005,1662.7982369000092,1662.7982369000092,1662.7982369000092,1665.3669463000115,2,2.580939200008288,2,2.580939200008288,,,,,,sub72_NB,001,2026-01-27_22h50.55.025,recognitionstage,,2025.1.1,59.83069110792377,2026-01-27 22h51.56.494719 +0530,
,,,14,14,0,14,frames\Vid14_BB_T.png,frames\Vid14_L.png,['r'],1,[4.020937299996149],[None],5,1.282805199996801,,,,,0,14,14,13,1665.4174474000029,,25,Female,Right handed,Normal,,,,,,,,,,,,,,,,,,,,,,,,,,,,,,,,,,,,,,,,1665.410934600004,1665.4174474000029,1665.4174474000029,1665.4174474000029,1665.4174474000029,1665.4174474000029,1665.4174474000029,1669.45093430001,['r'],1,[4.020937299996149],[None],1669.451549400008,1669.4669217000046,1669.4669217000046,1669.4669217000046,1670.751007400002,5,1.282805199996801,5,1.282805199996801,,,,,,sub72_NB,001,2026-01-27_22h50.55.025,recognitionstage,,2025.1.1,59.83069110792377,2026-01-27 22h51.56.494719 +0530,
,,,15,15,0,3,frames\Vid3_BB_T.png,frames\Vid3_L.png,['l'],1,[3.5153648999985307],[None],5,1.1961725000001024,,,,,0,15,15,2,1670.8032236,,25,Female,Right handed,Normal,,,,,,,,,,,,,,,,,,,,,,,,,,,,,,,,,,,,,,,,1670.7917539000046,1670.8032236,1670.8032236,1670.8032236,1670.8032236,1670.8032236,1670.8032236,1674.3199594000034,['l'],1,[3.5153648999985307],[None],1674.3211700000102,1674.3486166000075,1674.3486166000075,1674.3486166000075,1675.5344700999995,5,1.1961725000001024,5,1.1961725000001024,,,,,,sub72_NB,001,2026-01-27_22h50.55.025,recognitionstage,,2025.1.1,59.83069110792377,2026-01-27 22h51.56.494719 +0530,
,,,16,16,0,28,frames\Vid28_EM_T.png,frames\Vid28_L.png,['l'],1,[4.9336796999996295],[None],5,1.261644999991404,,,,,0,16,16,27,1675.5690777000127,,25,Female,Right handed,Normal,,,,,,,,,,,,,,,,,,,,,,,,,,,,,,,,,,,,,,,,1675.5447589000105,1675.5690777000127,1675.5690777000127,1675.5690777000127,1675.5690777000127,1675.5690777000127,1675.5690777000127,1680.5206456000014,['l'],1,[4.9336796999996295],[None],1680.5222832,1680.548474700001,1680.548474700001,1680.548474700001,1681.801391400004,5,1.261644999991404,5,1.261644999991404,,,,,,sub72_NB,001,2026-01-27_22h50.55.025,recognitionstage,,2025.1.1,59.83069110792377,2026-01-27 22h51.56.494719 +0530,
,,,17,17,0,34,frames\Vid34_BB_T.png,frames\Vid34_L.png,['r'],1,[3.397710499993991],[None],5,0.631553500003065,,,,,0,17,17,33,1681.8328350000083,,25,Female,Right handed,Normal,,,,,,,,,,,,,,,,,,,,,,,,,,,,,,,,,,,,,,,,1681.8117442000075,1681.8328350000083,1681.8328350000083,1681.8328350000083,1681.8328350000083,1681.8328350000083,1681.8328350000083,1685.2351651000063,['r'],1,[3.397710499993991],[None],1685.2362078000006,1685.2503638000053,1685.2503638000053,1685.2503638000053,1685.883982200001,5,0.631553500003065,5,0.631553500003065,,,,,,sub72_NB,001,2026-01-27_22h50.55.025,recognitionstage,,2025.1.1,59.83069110792377,2026-01-27 22h51.56.494719 +0530,
,,,18,18,0,1,frames\Vid1_EM_T.png,frames\Vid1_L.png,['l'],1,[3.176083500002278],[None],5,0.6809314999991329,,,,,0,18,18,0,1685.9503933000087,,25,Female,Right handed,Normal,,,,,,,,,,,,,,,,,,,,,,,,,,,,,,,,,,,,,,,,1685.9307558,1685.9503933000087,1685.9503933000087,1685.9503933000087,1685.9503933000087,1685.9503933000087,1685.9503933000087,1689.135528800005,['l'],1,[3.176083500002278],[None],1689.1364587999997,1689.1496394000133,1689.1496394000133,1689.1496394000133,1689.833979700008,5,0.6809314999991329,5,0.6809314999991329,,,,,,sub72_NB,001,2026-01-27_22h50.55.025,recognitionstage,,2025.1.1,59.83069110792377,2026-01-27 22h51.56.494719 +0530,
,,,19,19,0,6,frames\Vid6_BB_T.png,frames\Vid6_L.png,['l'],1,[3.35964850000164],[None],5,0.7974187999934657,,,,,0,19,19,5,1689.8869558000006,,25,Female,Right handed,Normal,,,,,,,,,,,,,,,,,,,,,,,,,,,,,,,,,,,,,,,,1689.8763897000026,1689.8869558000006,1689.8869558000006,1689.8869558000006,1689.8869558000006,1689.8869558000006,1689.8869558000006,1693.2525112000003,['l'],1,[3.35964850000164],[None],1693.2536216000008,1693.2668580000027,1693.2668580000027,1693.2668580000027,1694.067318900008,5,0.7974187999934657,5,0.7974187999934657,,,,,,sub72_NB,001,2026-01-27_22h50.55.025,recognitionstage,,2025.1.1,59.83069110792377,2026-01-27 22h51.56.494719 +0530,
,,,20,20,0,21,frames\Vid21_BB_T.png,frames\Vid21_L.png,['l'],1,[6.8799126999947475],[None],5,0.5306931999948574,,,,,0,20,20,20,1694.102833500001,,25,Female,Right handed,Normal,,,,,,,,,,,,,,,,,,,,,,,,,,,,,,,,,,,,,,,,1694.0792921000102,1694.102833500001,1694.102833500001,1694.102833500001,1694.102833500001,1694.102833500001,1694.102833500001,1700.9859738000087,['l'],1,[6.8799126999947475],[None],1700.987085300003,1701.0149287000095,1701.0149287000095,1701.0149287000095,1701.5339187000063,5,0.5306931999948574,5,0.5306931999948574,,,,,,sub72_NB,001,2026-01-27_22h50.55.025,recognitionstage,,2025.1.1,59.83069110792377,2026-01-27 22h51.56.494719 +0530,
,,,21,21,0,17,frames\Vid17_BB_T.png,frames\Vid17_L.png,['l'],1,[4.151489099996979],[None],5,0.647408999997424,,,,,0,21,21,16,1701.5669479000062,,25,Female,Right handed,Normal,,,,,,,,,,,,,,,,,,,,,,,,,,,,,,,,,,,,,,,,1701.556977500004,1701.5669479000062,1701.5669479000062,1701.5669479000062,1701.5669479000062,1701.5669479000062,1701.5669479000062,1705.7192460000078,['l'],1,[4.151489099996979],[None],1705.7201310000091,1705.7329417,1705.7329417,1705.7329417,1706.384195000006,5,0.647408999997424,5,0.647408999997424,,,,,,sub72_NB,001,2026-01-27_22h50.55.025,recognitionstage,,2025.1.1,59.83069110792377,2026-01-27 22h51.56.494719 +0530,
,,,22,22,0,13,frames\Vid13_BB_T.png,frames\Vid13_L.png,['l'],1,[5.955031000004965],[None],2,1.8490255000069737,,,,,0,22,22,12,1706.435387000005,,25,Female,Right handed,Normal,,,,,,,,,,,,,,,,,,,,,,,,,,,,,,,,,,,,,,,,1706.4166790000017,1706.435387000005,1706.435387000005,1706.435387000005,1706.435387000005,1706.435387000005,1706.435387000005,1712.401331400004,['l'],1,[5.955031000004965],[None],1712.402187700005,1712.4167095000012,1712.4167095000012,1712.4167095000012,1714.266751400006,2,1.8490255000069737,2,1.8490255000069737,,,,,,sub72_NB,001,2026-01-27_22h50.55.025,recognitionstage,,2025.1.1,59.83069110792377,2026-01-27 22h51.56.494719 +0530,
,,,23,23,0,23,frames\Vid23_EM_T.png,frames\Vid23_L.png,['r'],1,[5.231983300007414],[None],5,1.0978756000113208,,,,,0,23,23,22,1714.3025112000032,,25,Female,Right handed,Normal,,,,,,,,,,,,,,,,,,,,,,,,,,,,,,,,,,,,,,,,1714.280605500011,1714.3025112000032,1714.3025112000032,1714.3025112000032,1714.3025112000032,1714.3025112000032,1714.3025112000032,1719.536048599999,['r'],1,[5.231983300007414],[None],1719.537000100012,1719.550238900003,1719.550238900003,1719.550238900003,1720.6510586000077,5,1.0978756000113208,5,1.0978756000113208,,,,,,sub72_NB,001,2026-01-27_22h50.55.025,recognitionstage,,2025.1.1,59.83069110792377,2026-01-27 22h51.56.494719 +0530,
,,,24,24,0,8,frames\Vid8_BB_T.png,frames\Vid8_L.png,['r'],0,[2.9214850999996997],[None],5,0.5650309000047855,,,,,0,24,24,7,1720.700892000008,,25,Female,Right handed,Normal,,,,,,,,,,,,,,,,,,,,,,,,,,,,,,,,,,,,,,,,1720.687791000004,1720.700892000008,1720.700892000008,1720.700892000008,1720.700892000008,1720.700892000008,1720.700892000008,1723.634806400005,['r'],0,[2.9214850999996997],[None],1723.6357204000087,1723.650410400005,1723.650410400005,1723.650410400005,1724.2173607000004,5,0.5650309000047855,5,0.5650309000047855,,,,,,sub72_NB,001,2026-01-27_22h50.55.025,recognitionstage,,2025.1.1,59.83069110792377,2026-01-27 22h51.56.494719 +0530,
,,,25,25,0,29,frames\Vid29_BB_T.png,frames\Vid29_L.png,['l'],1,[3.425714099998004],[None],5,0.49930110000423156,,,,,0,25,25,28,1724.2526656000118,,25,Female,Right handed,Normal,,,,,,,,,,,,,,,,,,,,,,,,,,,,,,,,,,,,,,,,1724.2295168000128,1724.2526656000118,1724.2526656000118,1724.2526656000118,1724.2526656000118,1724.2526656000118,1724.2526656000118,1727.6844039999996,['l'],1,[3.425714099998004],[None],1727.6849275999994,1727.7004199000075,1727.7004199000075,1727.7004199000075,1728.2014740000013,5,0.49930110000423156,5,0.49930110000423156,,,,,,sub72_NB,001,2026-01-27_22h50.55.025,recognitionstage,,2025.1.1,59.83069110792377,2026-01-27 22h51.56.494719 +0530,
,,,26,26,0,4,frames\Vid4_EM_T.png,frames\Vid4_L.png,['l'],0,[3.979415900001186],[None],5,0.3973898999975063,,,,,0,26,26,3,1728.267170200008,,25,Female,Right handed,Normal,,,,,,,,,,,,,,,,,,,,,,,,,,,,,,,,,,,,,,,,1728.245904100011,1728.267170200008,1728.267170200008,1728.267170200008,1728.267170200008,1728.267170200008,1728.267170200008,1732.2530437000096,['l'],0,[3.979415900001186],[None],1732.2540592000005,1732.2665549000085,1732.2665549000085,1732.2665549000085,1732.6669837000081,5,0.3973898999975063,5,0.3973898999975063,,,,,,sub72_NB,001,2026-01-27_22h50.55.025,recognitionstage,,2025.1.1,59.83069110792377,2026-01-27 22h51.56.494719 +0530,
,,,27,27,0,12,frames\Vid12_EM_T.png,frames\Vid12_L.png,['l'],1,[2.950208599999314],[None],5,0.3991737999895122,,,,,0,27,27,11,1732.7202254000003,,25,Female,Right handed,Normal,,,,,,,,,,,,,,,,,,,,,,,,,,,,,,,,,,,,,,,,1732.7095588000084,1732.7202254000003,1732.7202254000003,1732.7202254000003,1732.7202254000003,1732.7202254000003,1732.7202254000003,1735.6841265000112,['l'],1,[2.950208599999314],[None],1735.6848442000046,1735.700150900011,1735.700150900011,1735.700150900011,1736.1008631000004,5,0.3991737999895122,5,0.3991737999895122,,,,,,sub72_NB,001,2026-01-27_22h50.55.025,recognitionstage,,2025.1.1,59.83069110792377,2026-01-27 22h51.56.494719 +0530,
,,,28,28,0,37,frames\Vid37_BB_T.png,frames\Vid37_L.png,['r'],1,[2.950402300004498],[None],5,0.5310572000016691,,,,,0,28,28,36,1736.1363034000096,,25,Female,Right handed,Normal,,,,,,,,,,,,,,,,,,,,,,,,,,,,,,,,,,,,,,,,1736.1119618000084,1736.1363034000096,1736.1363034000096,1736.1363034000096,1736.1363034000096,1736.1363034000096,1736.1363034000096,1739.1019494000066,['r'],1,[2.950402300004498],[None],1739.103001200012,1739.1169002000097,1739.1169002000097,1739.1169002000097,1739.6508851000108,5,0.5310572000016691,5,0.5310572000016691,,,,,,sub72_NB,001,2026-01-27_22h50.55.025,recognitionstage,,2025.1.1,59.83069110792377,2026-01-27 22h51.56.494719 +0530,
,,,29,29,0,2,frames\Vid2_BB_T.png,frames\Vid2_L.png,['r'],1,[3.338053999992553],[None],5,0.39704000001074746,,,,,0,29,29,1,1739.7004318000108,,25,Female,Right handed,Normal,,,,,,,,,,,,,,,,,,,,,,,,,,,,,,,,,,,,,,,,1739.6901662000018,1739.7004318000108,1739.7004318000108,1739.7004318000108,1739.7004318000108,1739.7004318000108,1739.7004318000108,1743.0532335000025,['r'],1,[3.338053999992553],[None],1743.054357000001,1743.0663421000063,1743.0663421000063,1743.0663421000063,1743.4669362000132,5,0.39704000001074746,5,0.39704000001074746,,,,,,sub72_NB,001,2026-01-27_22h50.55.025,recognitionstage,,2025.1.1,59.83069110792377,2026-01-27 22h51.56.494719 +0530,
,,,30,30,0,39,frames\Vid39_BB_T.png,frames\Vid39_L.png,['l'],1,[4.646297400002368],[None],5,0.5306093000108376,,,,,0,30,30,38,1743.4889054000087,,25,Female,Right handed,Normal,,,,,,,,,,,,,,,,,,,,,,,,,,,,,,,,,,,,,,,,1743.4743856999994,1743.4889054000087,1743.4889054000087,1743.4889054000087,1743.4889054000087,1743.4889054000087,1743.4889054000087,1748.1526680000097,['l'],1,[4.646297400002368],[None],1748.1537049000035,1748.1663694000017,1748.1663694000017,1748.1663694000017,1748.700285400002,5,0.5306093000108376,5,0.5306093000108376,,,,,,sub72_NB,001,2026-01-27_22h50.55.025,recognitionstage,,2025.1.1,59.83069110792377,2026-01-27 22h51.56.494719 +0530,
,,,31,31,0,35,frames\Vid35_EM_T.png,frames\Vid35_L.png,['r'],1,[3.5918427999858977],[None],5,0.38114779999887105,,,,,0,31,31,34,1748.7186152000068,,25,Female,Right handed,Normal,,,,,,,,,,,,,,,,,,,,,,,,,,,,,,,,,,,,,,,,1748.7078132000024,1748.7186152000068,1748.7186152000068,1748.7186152000068,1748.7186152000068,1748.7186152000068,1748.7186152000068,1752.3186359000101,['r'],1,[3.5918427999858977],[None],1752.319478800011,1752.3330692000018,1752.3330692000018,1752.3330692000018,1752.7177321000054,5,0.38114779999887105,5,0.38114779999887105,,,,,,sub72_NB,001,2026-01-27_22h50.55.025,recognitionstage,,2025.1.1,59.83069110792377,2026-01-27 22h51.56.494719 +0530,
,,,32,32,0,22,frames\Vid22_EM_T.png,frames\Vid22_L.png,['r'],1,[2.7925216000003275],[None],5,0.4146764000033727,,,,,0,32,32,21,1752.7499383000104,,25,Female,Right handed,Normal,,,,,,,,,,,,,,,,,,,,,,,,,,,,,,,,,,,,,,,,1752.730177000005,1752.7499383000104,1752.7499383000104,1752.7499383000104,1752.7499383000104,1752.7499383000104,1752.7499383000104,1755.5519563000125,['r'],1,[2.7925216000003275],[None],1755.5530899000005,1755.5669059000065,1755.5669059000065,1755.5669059000065,1755.9836562000128,5,0.4146764000033727,5,0.4146764000033727,,,,,,sub72_NB,001,2026-01-27_22h50.55.025,recognitionstage,,2025.1.1,59.83069110792377,2026-01-27 22h51.56.494719 +0530,
,,,33,33,0,25,frames\Vid25_BB_T.png,frames\Vid25_L.png,['r'],1,[2.300337699998636],[None],5,0.3482023999968078,,,,,0,33,33,24,1756.002197400012,,25,Female,Right handed,Normal,,,,,,,,,,,,,,,,,,,,,,,,,,,,,,,,,,,,,,,,1755.993197200005,1756.002197400012,1756.002197400012,1756.002197400012,1756.002197400012,1756.002197400012,1756.002197400012,1758.3187273000076,['r'],1,[2.300337699998636],[None],1758.3198111000092,1758.3335016000055,1758.3335016000055,1758.3335016000055,1758.6841888000054,5,0.3482023999968078,5,0.3482023999968078,,,,,,sub72_NB,001,2026-01-27_22h50.55.025,recognitionstage,,2025.1.1,59.83069110792377,2026-01-27 22h51.56.494719 +0530,
,,,34,34,0,9,frames\Vid9_EM_T.png,frames\Vid9_L.png,['r'],0,[7.408494799994514],[None],5,0.38041829998837784,,,,,0,34,34,8,1758.7339237000124,,25,Female,Right handed,Normal,,,,,,,,,,,,,,,,,,,,,,,,,,,,,,,,,,,,,,,,1758.7214900000108,1758.7339237000124,1758.7339237000124,1758.7339237000124,1758.7339237000124,1758.7339237000124,1758.7339237000124,1766.1522515000106,['r'],0,[7.408494799994514],[None],1766.1534563000023,1766.1663885000016,1766.1663885000016,1766.1663885000016,1766.55092590001,5,0.38041829998837784,5,0.38041829998837784,,,,,,sub72_NB,001,2026-01-27_22h50.55.025,recognitionstage,,2025.1.1,59.83069110792377,2026-01-27 22h51.56.494719 +0530,
,,,35,35,0,36,frames\Vid36_BB_T.png,frames\Vid36_L.png,['r'],1,[4.748530900003971],[None],2,1.6140272000047844,,,,,0,35,35,35,1766.5860097000113,,25,Female,Right handed,Normal,,,,,,,,,,,,,,,,,,,,,,,,,,,,,,,,,,,,,,,,1766.5629581000103,1766.5860097000113,1766.5860097000113,1766.5860097000113,1766.5860097000113,1766.5860097000113,1766.5860097000113,1771.3359224000014,['r'],1,[4.748530900003971],[None],1771.3368503000092,1771.349673900011,1771.349673900011,1771.349673900011,1772.967562100006,2,1.6140272000047844,2,1.6140272000047844,,,,,,sub72_NB,001,2026-01-27_22h50.55.025,recognitionstage,,2025.1.1,59.83069110792377,2026-01-27 22h51.56.494719 +0530,
,,,36,36,0,30,frames\Vid30_EM_T.png,frames\Vid30_L.png,['l'],1,[5.44554239998979],[None],2,1.3984133000049042,,,,,0,36,36,29,1772.985056000005,,25,Female,Right handed,Normal,,,,,,,,,,,,,,,,,,,,,,,,,,,,,,,,,,,,,,,,1772.9772713999992,1772.985056000005,1772.985056000005,1772.985056000005,1772.985056000005,1772.985056000005,1772.985056000005,1778.435701800001,['l'],1,[5.44554239998979],[None],1778.4366519000032,1778.4501007000072,1778.4501007000072,1778.4501007000072,1779.850653600006,2,1.3984133000049042,2,1.3984133000049042,,,,,,sub72_NB,001,2026-01-27_22h50.55.025,recognitionstage,,2025.1.1,59.83069110792377,2026-01-27 22h51.56.494719 +0530,
,,,37,37,0,10,frames\Vid10_BB_T.png,frames\Vid10_L.png,['r'],1,[4.8737246000091545],[None],5,1.23204300001089,,,,,0,37,37,9,1779.9007500000007,,25,Female,Right handed,Normal,,,,,,,,,,,,,,,,,,,,,,,,,,,,,,,,,,,,,,,,1779.8942955000093,1779.9007500000007,1779.9007500000007,1779.9007500000007,1779.9007500000007,1779.9007500000007,1779.9007500000007,1784.7856096000032,['r'],1,[4.8737246000091545],[None],1784.7865261000115,1784.8000862000044,1784.8000862000044,1784.8000862000044,1786.033739999999,5,1.23204300001089,5,1.23204300001089,,,,,,sub72_NB,001,2026-01-27_22h50.55.025,recognitionstage,,2025.1.1,59.83069110792377,2026-01-27 22h51.56.494719 +0530,
,,,38,38,0,26,frames\Vid26_EM_T.png,frames\Vid26_L.png,['r'],0,[3.017026299989084],[None],5,0.5474124000029406,,,,,0,38,38,25,1786.0699778000126,,25,Female,Right handed,Normal,,,,,,,,,,,,,,,,,,,,,,,,,,,,,,,,,,,,,,,,1786.0493108000082,1786.0699778000126,1786.0699778000126,1786.0699778000126,1786.0699778000126,1786.0699778000126,1786.0699778000126,1789.1026841999992,['r'],0,[3.017026299989084],[None],1789.1040039000072,1789.116804300007,1789.116804300007,1789.116804300007,1789.667125500011,5,0.5474124000029406,5,0.5474124000029406,,,,,,sub72_NB,001,2026-01-27_22h50.55.025,recognitionstage,,2025.1.1,59.83069110792377,2026-01-27 22h51.56.494719 +0530,
,,,39,39,0,32,frames\Vid32_EM_T.png,frames\Vid32_L.png,['r'],1,[2.666428199998336],[None],5,0.4983358000026783,,,,,0,39,39,31,1789.7000300000072,,25,Female,Right handed,Normal,,,,,,,,,,,,,,,,,,,,,,,,,,,,,,,,,,,,,,,,1789.6778259999992,1789.7000300000072,1789.7000300000072,1789.7000300000072,1789.7000300000072,1789.7000300000072,1789.7000300000072,1792.3681495000055,['r'],1,[2.666428199998336],[None],1792.3690509000007,1792.3835982000019,1792.3835982000019,1792.3835982000019,1792.884727200013,5,0.4983358000026783,5,0.4983358000026783,,,,,,sub72_NB,001,2026-01-27_22h50.55.025,recognitionstage,,2025.1.1,59.83069110792377,2026-01-27 22h51.56.494719 +0530,
,,,,,,,,,,,,,,,,,,,,,,,,,25,Female,Right handed,Normal,,,,,,,,,,,,,,,,,,,,,,,,,,,,,,,,,,,,,,,,,,,,,,,,,,,,,,,,,,,,,1792.884841600011,1792.9004124000057,1792.9004124000057,1812.885800300006,None,sub72_NB,001,2026-01-27_22h50.55.025,recognitionstage,,2025.1.1,59.83069110792377,2026-01-27 22h51.56.494719 +0530,
