path,duration,is_repeat,thisN,thisTrialN,thisRepN,movie_id,target_img,lure_img,resp.keys,resp.corr,resp.rt,resp.duration,conf_radio.response,conf_radio.rt,movie.thisRepN,movie.thisTrialN,movie.thisN,movie.thisIndex,recogloop.thisRepN,recogloop.thisTrialN,recogloop.thisN,recogloop.thisIndex,thisRow.t,notes,age,gender,handedness,vision,caffeine_2h,alcohol_smoke_12h,demographics.started,demographics.stopped,Instructions.started,text1.started,key_resp.started,Instructions.stopped,key_resp.keys,key_resp.rt,key_resp.duration,instruction_2.started,text2.started,key_resp_2.started,instruction_2.stopped,key_resp_2.keys,key_resp_2.rt,key_resp_2.duration,Videos.started,movie_2.started,vigilance_resp.started,movie_2.stopped,Videos.stopped,movie.vigilance_resp.keys,movie.vigilance_resp.rt,movie.vigilance_resp.duration,vigilance_pressed,vigilance_correct,ISI.started,text.started,ISI.stopped,text.stopped,recognition.started,text_4.started,key_resp_3.started,recognition.stopped,key_resp_3.keys,key_resp_3.rt,key_resp_3.duration,recognition_task.started,leftimage.started,rightimage.started,resp.started,frames_question.started,right_label.started,left_label.started,recognition_task.stopped,recogloop.resp.keys,recogloop.resp.corr,recogloop.resp.rt,recogloop.resp.duration,confidence.started,conf_text.started,conf_radio.started,conf_label.started,confidence.stopped,recogloop.conf_radio.response,recogloop.conf_radio.rt,confidence,confidence_rt,thank_you.started,text_6.started,key_resp_4.started,thank_you.stopped,key_resp_4.keys,participant,session,date,expName,expVersion,psychopyVersion,frameRate,expStart,...103
,,,,,,,,,,,,,,,,,,,,,,,,,24,Male,Right handed,Corrected to normal,Caffeine consumed in last 2 hours?,Alcohol or smoking in last 12 hours?,0.01573449998977594,0.0795889999717474,,,,,,,,,,,,,,,,,,,,,,,,,,,,,,,,,,,,,,,,,,,,,,,,,,,,,,,,,,,,,,sub86_NB,001,2026-01-29_10h51.01.160,recognitionstage,,2025.1.1,59.61386904974574,2026-01-29 10h51.55.310557 +0530,
,,,,,,,,,,,,,,,,,,,,,,,,,24,Male,Right handed,Corrected to normal,,,,,0.079617799987318,0.09943989999010228,0.09943989999010228,9.38801099997363,space,9.283003599994117,None,,,,,,,,,,,,,,,,,,,,,,,,,,,,,,,,,,,,,,,,,,,,,,,,,,,,,,,sub86_NB,001,2026-01-29_10h51.01.160,recognitionstage,,2025.1.1,59.61386904974574,2026-01-29 10h51.55.310557 +0530,
,,,,,,,,,,,,,,,,,,,,,,,,,24,Male,Right handed,Corrected to normal,,,,,,,,,,,,9.388063499995042,9.401703099982115,9.401703099982115,18.003210399998352,space,8.587955299997702,None,,,,,,,,,,,,,,,,,,,,,,,,,,,,,,,,,,,,,,,,,,,,,,,,sub86_NB,001,2026-01-29_10h51.01.160,recognitionstage,,2025.1.1,59.61386904974574,2026-01-29 10h51.55.310557 +0530,
Trimmed_videos/natural_18.mp4,24,1,44,44,0,,,,,,,,,,0,44,44,18,,,,,1554.4676188999729,,24,Male,Right handed,Corrected to normal,,,,,,,,,,,,,,,,,,,1554.4167468999804,1554.4676188999729,1554.4676188999729,1551.2841824999778,1555.9697325999732,space,1.49825969999074,None,1,1,1556.0840120999783,1556.1007694999862,1558.5887943999842,1554.4676188999729,1558.5889294999943,1558.6026331999747,1558.6026331999747,1583.9039331999957,space,25.29153960000258,None,,,,,,,,,,,,,,,,,,,,,,,,,,,sub86_NB,001,2026-01-29_10h51.01.160,recognitionstage,,2025.1.1,59.61386904974574,2026-01-29 10h51.55.310557 +0530,
,,,0,0,0,29,frames\Vid29_BB_T.png,frames\Vid29_L.png,['l'],0,[2.5280036999902222],[None],2,7.765094100002898,,,,,0,0,0,28,1583.9498345999746,,24,Male,Right handed,Corrected to normal,,,,,,,,,,,,,,,,,,,,,,,,,,,,,,,,,,,,,,,,1583.941777799977,1583.9498345999746,1583.9498345999746,1583.9498345999746,1583.9498345999746,1583.9498345999746,1583.9498345999746,1586.4862104999775,['l'],0,[2.5280036999902222],[None],1586.4871903999883,1586.5016145999834,1586.5016145999834,1586.5016145999834,1594.2696588999825,2,7.765094100002898,2,7.765094100002898,,,,,,sub86_NB,001,2026-01-29_10h51.01.160,recognitionstage,,2025.1.1,59.61386904974574,2026-01-29 10h51.55.310557 +0530,
,,,1,1,0,19,frames\Vid19_BB_T.png,frames\Vid19_L.png,['l'],1,[6.5212288000038825],[None],3,4.96393289999105,,,,,0,1,1,18,1594.3169760999735,,24,Male,Right handed,Corrected to normal,,,,,,,,,,,,,,,,,,,,,,,,,,,,,,,,,,,,,,,,1594.2995558999828,1594.3169760999735,1594.3169760999735,1594.3169760999735,1594.3169760999735,1594.3169760999735,1594.3169760999735,1600.8538838999812,['l'],1,[6.5212288000038825],[None],1600.8552580999967,1600.8682284999813,1600.8682284999813,1600.8682284999813,1605.83590559999,3,4.96393289999105,3,4.96393289999105,,,,,,sub86_NB,001,2026-01-29_10h51.01.160,recognitionstage,,2025.1.1,59.61386904974574,2026-01-29 10h51.55.310557 +0530,
,,,2,2,0,38,frames\Vid38_EM_T.png,frames\Vid38_L.png,['r'],1,[4.825817000004463],[None],5,2.214831699995557,,,,,0,2,2,37,1605.8681197999977,,24,Male,Right handed,Corrected to normal,,,,,,,,,,,,,,,,,,,,,,,,,,,,,,,,,,,,,,,,1605.8617301999766,1605.8681197999977,1605.8681197999977,1605.8681197999977,1605.8681197999977,1605.8681197999977,1605.8681197999977,1610.7035803999752,['r'],1,[4.825817000004463],[None],1610.7045578999969,1610.7182038999745,1610.7182038999745,1610.7182038999745,1612.9348981999792,5,2.214831699995557,5,2.214831699995557,,,,,,sub86_NB,001,2026-01-29_10h51.01.160,recognitionstage,,2025.1.1,59.61386904974574,2026-01-29 10h51.55.310557 +0530,
,,,3,3,0,12,frames\Vid12_EM_T.png,frames\Vid12_L.png,['r'],1,[9.483890100003919],[None],5,4.265624599996954,,,,,0,3,3,11,1613.001996499981,,24,Male,Right handed,Corrected to normal,,,,,,,,,,,,,,,,,,,,,,,,,,,,,,,,,,,,,,,,1612.9932832999912,1613.001996499981,1613.001996499981,1613.001996499981,1613.001996499981,1613.001996499981,1613.001996499981,1622.486522799998,['r'],1,[9.483890100003919],[None],1622.4872543999809,1622.5011696000001,1622.5011696000001,1622.5011696000001,1626.768911399995,5,4.265624599996954,5,4.265624599996954,,,,,,sub86_NB,001,2026-01-29_10h51.01.160,recognitionstage,,2025.1.1,59.61386904974574,2026-01-29 10h51.55.310557 +0530,
,,,4,4,0,40,frames\Vid40_EM_T.png,frames\Vid40_L.png,['l'],1,[4.941249199997401],[None],5,2.079649400024209,,,,,0,4,4,39,1626.816580099985,,24,Male,Right handed,Corrected to normal,,,,,,,,,,,,,,,,,,,,,,,,,,,,,,,,,,,,,,,,1626.8061021999747,1626.816580099985,1626.816580099985,1626.816580099985,1626.816580099985,1626.816580099985,1626.816580099985,1631.7713524999854,['l'],1,[4.941249199997401],[None],1631.7725212999794,1631.7845384999819,1631.7845384999819,1631.7845384999819,1633.8695235999767,5,2.079649400024209,5,2.079649400024209,,,,,,sub86_NB,001,2026-01-29_10h51.01.160,recognitionstage,,2025.1.1,59.61386904974574,2026-01-29 10h51.55.310557 +0530,
,,,5,5,0,32,frames\Vid32_EM_T.png,frames\Vid32_L.png,['r'],1,[3.136059499986004],[None],5,1.4804614000022411,,,,,0,5,5,31,1633.917693699972,,24,Male,Right handed,Corrected to normal,,,,,,,,,,,,,,,,,,,,,,,,,,,,,,,,,,,,,,,,1633.8981482999807,1633.917693699972,1633.917693699972,1633.917693699972,1633.917693699972,1633.917693699972,1633.917693699972,1637.0710487999895,['r'],1,[3.136059499986004],[None],1637.0722952999931,1637.099570899998,1637.099570899998,1637.099570899998,1638.5689635999734,5,1.4804614000022411,5,1.4804614000022411,,,,,,sub86_NB,001,2026-01-29_10h51.01.160,recognitionstage,,2025.1.1,59.61386904974574,2026-01-29 10h51.55.310557 +0530,
,,,6,6,0,28,frames\Vid28_EM_T.png,frames\Vid28_L.png,['l'],1,[3.8283327000099234],[None],5,2.014810900000157,,,,,0,6,6,27,1638.6015061999788,,24,Male,Right handed,Corrected to normal,,,,,,,,,,,,,,,,,,,,,,,,,,,,,,,,,,,,,,,,1638.5936874999898,1638.6015061999788,1638.6015061999788,1638.6015061999788,1638.6015061999788,1638.6015061999788,1638.6015061999788,1642.4366839999857,['l'],1,[3.8283327000099234],[None],1642.437804199988,1642.4514393999998,1642.4514393999998,1642.4514393999998,1644.4687150999962,5,2.014810900000157,5,2.014810900000157,,,,,,sub86_NB,001,2026-01-29_10h51.01.160,recognitionstage,,2025.1.1,59.61386904974574,2026-01-29 10h51.55.310557 +0530,
,,,7,7,0,10,frames\Vid10_BB_T.png,frames\Vid10_L.png,['r'],1,[6.6544847000041045],[None],5,2.03155099999276,,,,,0,7,7,9,1644.5352655999886,,24,Male,Right handed,Corrected to normal,,,,,,,,,,,,,,,,,,,,,,,,,,,,,,,,,,,,,,,,1644.5286170999752,1644.5352655999886,1644.5352655999886,1644.5352655999886,1644.5352655999886,1644.5352655999886,1644.5352655999886,1651.2035694999795,['r'],1,[6.6544847000041045],[None],1651.2043565999775,1651.218653399992,1651.218653399992,1651.218653399992,1653.2521194999863,5,2.03155099999276,5,2.03155099999276,,,,,,sub86_NB,001,2026-01-29_10h51.01.160,recognitionstage,,2025.1.1,59.61386904974574,2026-01-29 10h51.55.310557 +0530,
,,,8,8,0,16,frames\Vid16_EM_T.png,frames\Vid16_L.png,['l'],1,[4.635216399998171],[None],5,1.430536400002893,,,,,0,8,8,15,1653.338580599986,,24,Male,Right handed,Corrected to normal,,,,,,,,,,,,,,,,,,,,,,,,,,,,,,,,,,,,,,,,1653.3245751999784,1653.338580599986,1653.338580599986,1653.338580599986,1653.338580599986,1653.338580599986,1653.338580599986,1657.9876678999863,['l'],1,[4.635216399998171],[None],1657.9889419999963,1658.0012109999952,1658.0012109999952,1658.0012109999952,1659.4350751999882,5,1.430536400002893,5,1.430536400002893,,,,,,sub86_NB,001,2026-01-29_10h51.01.160,recognitionstage,,2025.1.1,59.61386904974574,2026-01-29 10h51.55.310557 +0530,
,,,9,9,0,11,frames\Vid11_EM_T.png,frames\Vid11_L.png,['r'],1,[2.7812774000049103],[None],5,1.1973451999947429,,,,,0,9,9,10,1659.5045331999718,,24,Male,Right handed,Corrected to normal,,,,,,,,,,,,,,,,,,,,,,,,,,,,,,,,,,,,,,,,1659.494161199982,1659.5045331999718,1659.5045331999718,1659.5045331999718,1659.5045331999718,1659.5045331999718,1659.5045331999718,1662.2875666999898,['r'],1,[2.7812774000049103],[None],1662.288567199983,1662.3013401999779,1662.3013401999779,1662.3013401999779,1663.5022768999916,5,1.1973451999947429,5,1.1973451999947429,,,,,,sub86_NB,001,2026-01-29_10h51.01.160,recognitionstage,,2025.1.1,59.61386904974574,2026-01-29 10h51.55.310557 +0530,
,,,10,10,0,34,frames\Vid34_BB_T.png,frames\Vid34_L.png,['r'],1,[4.716343999985838],[None],4,1.2812933000095654,,,,,0,10,10,33,1663.5534857999883,,24,Male,Right handed,Corrected to normal,,,,,,,,,,,,,,,,,,,,,,,,,,,,,,,,,,,,,,,,1663.5280597999808,1663.5534857999883,1663.5534857999883,1663.5534857999883,1663.5534857999883,1663.5534857999883,1663.5534857999883,1668.2864496999828,['r'],1,[4.716343999985838],[None],1668.2876927999896,1668.3015181999945,1668.3015181999945,1668.3015181999945,1669.5851879999973,4,1.2812933000095654,4,1.2812933000095654,,,,,,sub86_NB,001,2026-01-29_10h51.01.160,recognitionstage,,2025.1.1,59.61386904974574,2026-01-29 10h51.55.310557 +0530,
,,,11,11,0,31,frames\Vid31_EM_T.png,frames\Vid31_L.png,['r'],1,[4.059839499997906],[None],5,1.6479046000167727,,,,,0,11,11,30,1669.6180647999863,,24,Male,Right handed,Corrected to normal,,,,,,,,,,,,,,,,,,,,,,,,,,,,,,,,,,,,,,,,1669.6075911999797,1669.6180647999863,1669.6180647999863,1669.6180647999863,1669.6180647999863,1669.6180647999863,1669.6180647999863,1673.6870750999951,['r'],1,[4.059839499997906],[None],1673.6881372999924,1673.7015794999897,1673.7015794999897,1673.7015794999897,1675.352142299991,5,1.6479046000167727,5,1.6479046000167727,,,,,,sub86_NB,001,2026-01-29_10h51.01.160,recognitionstage,,2025.1.1,59.61386904974574,2026-01-29 10h51.55.310557 +0530,
,,,12,12,0,35,frames\Vid35_EM_T.png,frames\Vid35_L.png,['l'],1,[3.4917002999864053],[None],5,1.4631335999874864,,,,,0,12,12,34,1675.4182806999888,,24,Male,Right handed,Corrected to normal,,,,,,,,,,,,,,,,,,,,,,,,,,,,,,,,,,,,,,,,1675.3964792999905,1675.4182806999888,1675.4182806999888,1675.4182806999888,1675.4182806999888,1675.4182806999888,1675.4182806999888,1678.9216131999856,['l'],1,[3.4917002999864053],[None],1678.9225506999937,1678.9347058999992,1678.9347058999992,1678.9347058999992,1680.4016362999973,5,1.4631335999874864,5,1.4631335999874864,,,,,,sub86_NB,001,2026-01-29_10h51.01.160,recognitionstage,,2025.1.1,59.61386904974574,2026-01-29 10h51.55.310557 +0530,
,,,13,13,0,23,frames\Vid23_EM_T.png,frames\Vid23_L.png,['r'],1,[6.754520599992247],[None],1,2.8643034999840893,,,,,0,13,13,22,1680.4512453999778,,24,Male,Right handed,Corrected to normal,,,,,,,,,,,,,,,,,,,,,,,,,,,,,,,,,,,,,,,,1680.430011599994,1680.4512453999778,1680.4512453999778,1680.4512453999778,1680.4512453999778,1680.4512453999778,1680.4512453999778,1687.2199354999757,['r'],1,[6.754520599992247],[None],1687.2211933999788,1687.234934899985,1687.234934899985,1687.234934899985,1690.1027555999754,1,2.8643034999840893,1,2.8643034999840893,,,,,,sub86_NB,001,2026-01-29_10h51.01.160,recognitionstage,,2025.1.1,59.61386904974574,2026-01-29 10h51.55.310557 +0530,
,,,14,14,0,36,frames\Vid36_BB_T.png,frames\Vid36_L.png,['r'],1,[8.294462099991506],[None],1,2.332302399998298,,,,,0,14,14,35,1690.1515337999735,,24,Male,Right handed,Corrected to normal,,,,,,,,,,,,,,,,,,,,,,,,,,,,,,,,,,,,,,,,1690.1291486999835,1690.1515337999735,1690.1515337999735,1690.1515337999735,1690.1515337999735,1690.1515337999735,1690.1515337999735,1698.4532185999851,['r'],1,[8.294462099991506],[None],1698.4538107999833,1698.4682464999787,1698.4682464999787,1698.4682464999787,1700.8019585000002,1,2.332302399998298,1,2.332302399998298,,,,,,sub86_NB,001,2026-01-29_10h51.01.160,recognitionstage,,2025.1.1,59.61386904974574,2026-01-29 10h51.55.310557 +0530,
,,,15,15,0,21,frames\Vid21_BB_T.png,frames\Vid21_L.png,['r'],1,[7.778475700004492],[None],5,1.479957400006242,,,,,0,15,15,20,1700.8514963999914,,24,Male,Right handed,Corrected to normal,,,,,,,,,,,,,,,,,,,,,,,,,,,,,,,,,,,,,,,,1700.8306808999914,1700.8514963999914,1700.8514963999914,1700.8514963999914,1700.8514963999914,1700.8514963999914,1700.8514963999914,1708.6376552000002,['r'],1,[7.778475700004492],[None],1708.6387990999792,1708.6511262999848,1708.6511262999848,1708.6511262999848,1710.1353703999775,5,1.479957400006242,5,1.479957400006242,,,,,,sub86_NB,001,2026-01-29_10h51.01.160,recognitionstage,,2025.1.1,59.61386904974574,2026-01-29 10h51.55.310557 +0530,
,,,16,16,0,33,frames\Vid33_BB_T.png,frames\Vid33_L.png,['l'],1,[3.877741899981629],[None],5,1.5985443000099622,,,,,0,16,16,32,1710.1681293999718,,24,Male,Right handed,Corrected to normal,,,,,,,,,,,,,,,,,,,,,,,,,,,,,,,,,,,,,,,,1710.1609730999917,1710.1681293999718,1710.1681293999718,1710.1681293999718,1710.1681293999718,1710.1681293999718,1710.1681293999718,1714.0537280999997,['l'],1,[3.877741899981629],[None],1714.0546237999806,1714.0678033999866,1714.0678033999866,1714.0678033999866,1715.668374699977,5,1.5985443000099622,5,1.5985443000099622,,,,,,sub86_NB,001,2026-01-29_10h51.01.160,recognitionstage,,2025.1.1,59.61386904974574,2026-01-29 10h51.55.310557 +0530,
,,,17,17,0,2,frames\Vid2_BB_T.png,frames\Vid2_L.png,['l'],1,[6.142457899986766],[None],5,1.1797790999989957,,,,,0,17,17,1,1715.735454299982,,24,Male,Right handed,Corrected to normal,,,,,,,,,,,,,,,,,,,,,,,,,,,,,,,,,,,,,,,,1715.7196463999862,1715.735454299982,1715.735454299982,1715.735454299982,1715.735454299982,1715.735454299982,1715.735454299982,1721.887905599986,['l'],1,[6.142457899986766],[None],1721.8890898999816,1721.9017202999967,1721.9017202999967,1721.9017202999967,1723.0855604999815,5,1.1797790999989957,5,1.1797790999989957,,,,,,sub86_NB,001,2026-01-29_10h51.01.160,recognitionstage,,2025.1.1,59.61386904974574,2026-01-29 10h51.55.310557 +0530,
,,,18,18,0,9,frames\Vid9_EM_T.png,frames\Vid9_L.png,['r'],1,[4.818980299984105],[None],5,1.099085499998182,,,,,0,18,18,8,1723.1548644999857,,24,Male,Right handed,Corrected to normal,,,,,,,,,,,,,,,,,,,,,,,,,,,,,,,,,,,,,,,,1723.1359349999984,1723.1548644999857,1723.1548644999857,1723.1548644999857,1723.1548644999857,1723.1548644999857,1723.1548644999857,1727.9862609999836,['r'],1,[4.818980299984105],[None],1727.9872059999907,1728.0016770999937,1728.0016770999937,1728.0016770999937,1729.1021238999965,5,1.099085499998182,5,1.099085499998182,,,,,,sub86_NB,001,2026-01-29_10h51.01.160,recognitionstage,,2025.1.1,59.61386904974574,2026-01-29 10h51.55.310557 +0530,
,,,19,19,0,27,frames\Vid27_BB_T.png,frames\Vid27_L.png,['r'],1,[9.620692199998302],[None],4,1.5319311000057496,,,,,0,19,19,26,1729.1371601999854,,24,Male,Right handed,Corrected to normal,,,,,,,,,,,,,,,,,,,,,,,,,,,,,,,,,,,,,,,,1729.1249245999788,1729.1371601999854,1729.1371601999854,1729.1371601999854,1729.1371601999854,1729.1371601999854,1729.1371601999854,1738.769838099979,['r'],1,[9.620692199998302],[None],1738.770819199999,1738.7849327999866,1738.7849327999866,1738.7849327999866,1740.3188773999864,4,1.5319311000057496,4,1.5319311000057496,,,,,,sub86_NB,001,2026-01-29_10h51.01.160,recognitionstage,,2025.1.1,59.61386904974574,2026-01-29 10h51.55.310557 +0530,
,,,20,20,0,8,frames\Vid8_BB_T.png,frames\Vid8_L.png,['r'],1,[6.2921558000089135],[None],5,0.9163701999932528,,,,,0,20,20,7,1740.4017770999926,,24,Male,Right handed,Corrected to normal,,,,,,,,,,,,,,,,,,,,,,,,,,,,,,,,,,,,,,,,1740.3925450999814,1740.4017770999926,1740.4017770999926,1740.4017770999926,1740.4017770999926,1740.4017770999926,1740.4017770999926,1746.703264199983,['r'],1,[6.2921558000089135],[None],1746.7041848999797,1746.7187761999958,1746.7187761999958,1746.7187761999958,1747.6350571999792,5,0.9163701999932528,5,0.9163701999932528,,,,,,sub86_NB,001,2026-01-29_10h51.01.160,recognitionstage,,2025.1.1,59.61386904974574,2026-01-29 10h51.55.310557 +0530,
,,,21,21,0,25,frames\Vid25_BB_T.png,frames\Vid25_L.png,['l'],1,[6.423089399992023],[None],5,2.11488000000827,,,,,0,21,21,24,1747.6707010999962,,24,Male,Right handed,Corrected to normal,,,,,,,,,,,,,,,,,,,,,,,,,,,,,,,,,,,,,,,,1747.6585918999917,1747.6707010999962,1747.6707010999962,1747.6707010999962,1747.6707010999962,1747.6707010999962,1747.6707010999962,1754.1032206999953,['l'],1,[6.423089399992023],[None],1754.1044375999772,1754.118227799976,1754.118227799976,1754.118227799976,1756.2350982999778,5,2.11488000000827,5,2.11488000000827,,,,,,sub86_NB,001,2026-01-29_10h51.01.160,recognitionstage,,2025.1.1,59.61386904974574,2026-01-29 10h51.55.310557 +0530,
,,,22,22,0,13,frames\Vid13_BB_T.png,frames\Vid13_L.png,['r'],0,[4.84005819997401],[None],2,1.5796033999940846,,,,,0,22,22,12,1756.3017306999827,,24,Male,Right handed,Corrected to normal,,,,,,,,,,,,,,,,,,,,,,,,,,,,,,,,,,,,,,,,1756.2809880999848,1756.3017306999827,1756.3017306999827,1756.3017306999827,1756.3017306999827,1756.3017306999827,1756.3017306999827,1761.1547119999886,['r'],0,[4.84005819997401],[None],1761.15587279998,1761.1678575999977,1761.1678575999977,1761.1678575999977,1762.7525818999857,2,1.5796033999940846,2,1.5796033999940846,,,,,,sub86_NB,001,2026-01-29_10h51.01.160,recognitionstage,,2025.1.1,59.61386904974574,2026-01-29 10h51.55.310557 +0530,
,,,23,23,0,1,frames\Vid1_EM_T.png,frames\Vid1_L.png,['l'],1,[8.48012110000127],[None],5,1.6977396000002045,,,,,0,23,23,0,1762.8377517999907,,24,Male,Right handed,Corrected to normal,,,,,,,,,,,,,,,,,,,,,,,,,,,,,,,,,,,,,,,,1762.814434,1762.8377517999907,1762.8377517999907,1762.8377517999907,1762.8377517999907,1762.8377517999907,1762.8377517999907,1771.3205227999715,['l'],1,[8.48012110000127],[None],1771.3216646999936,1771.3345809999737,1771.3345809999737,1771.3345809999737,1773.0356610999734,5,1.6977396000002045,5,1.6977396000002045,,,,,,sub86_NB,001,2026-01-29_10h51.01.160,recognitionstage,,2025.1.1,59.61386904974574,2026-01-29 10h51.55.310557 +0530,
,,,24,24,0,5,frames\Vid5_EM_T.png,frames\Vid5_L.png,['r'],0,[6.933104099996854],[None],3,1.4295154999999795,,,,,0,24,24,4,1773.1048251999891,,24,Male,Right handed,Corrected to normal,,,,,,,,,,,,,,,,,,,,,,,,,,,,,,,,,,,,,,,,1773.0839836999949,1773.1048251999891,1773.1048251999891,1773.1048251999891,1773.1048251999891,1773.1048251999891,1773.1048251999891,1780.0553162999859,['r'],0,[6.933104099996854],[None],1780.0565348999808,1780.0679796999902,1780.0679796999902,1780.0679796999902,1781.5020112999773,3,1.4295154999999795,3,1.4295154999999795,,,,,,sub86_NB,001,2026-01-29_10h51.01.160,recognitionstage,,2025.1.1,59.61386904974574,2026-01-29 10h51.55.310557 +0530,
,,,25,25,0,22,frames\Vid22_EM_T.png,frames\Vid22_L.png,['l'],1,[5.4851753000111785],[None],5,1.2995481999823824,,,,,0,25,25,21,1781.5366602999857,,24,Male,Right handed,Corrected to normal,,,,,,,,,,,,,,,,,,,,,,,,,,,,,,,,,,,,,,,,1781.5286767999933,1781.5366602999857,1781.5366602999857,1781.5366602999857,1781.5366602999857,1781.5366602999857,1781.5366602999857,1787.035756599973,['l'],1,[5.4851753000111785],[None],1787.0362827999925,1787.051734699984,1787.051734699984,1787.051734699984,1788.352186299977,5,1.2995481999823824,5,1.2995481999823824,,,,,,sub86_NB,001,2026-01-29_10h51.01.160,recognitionstage,,2025.1.1,59.61386904974574,2026-01-29 10h51.55.310557 +0530,
,,,26,26,0,15,frames\Vid15_BB_T.png,frames\Vid15_L.png,['r'],1,[6.09834949998185],[None],5,0.8972254999971483,,,,,0,26,26,14,1788.4357318999828,,24,Male,Right handed,Corrected to normal,,,,,,,,,,,,,,,,,,,,,,,,,,,,,,,,,,,,,,,,1788.4126496999816,1788.4357318999828,1788.4357318999828,1788.4357318999828,1788.4357318999828,1788.4357318999828,1788.4357318999828,1794.537205599976,['r'],1,[6.09834949998185],[None],1794.5383204999962,1794.5518317999959,1794.5518317999959,1794.5518317999959,1795.4525694999902,5,0.8972254999971483,5,0.8972254999971483,,,,,,sub86_NB,001,2026-01-29_10h51.01.160,recognitionstage,,2025.1.1,59.61386904974574,2026-01-29 10h51.55.310557 +0530,
,,,27,27,0,6,frames\Vid6_BB_T.png,frames\Vid6_L.png,['r'],1,[11.316600299993297],[None],2,2.1295922999852337,,,,,0,27,27,5,1795.5213494999916,,24,Male,Right handed,Corrected to normal,,,,,,,,,,,,,,,,,,,,,,,,,,,,,,,,,,,,,,,,1795.5086912999977,1795.5213494999916,1795.5213494999916,1795.5213494999916,1795.5213494999916,1795.5213494999916,1795.5213494999916,1806.8385567999794,['r'],1,[11.316600299993297],[None],1806.8399656999973,1806.866445599997,1806.866445599997,1806.866445599997,1808.985957099998,2,2.1295922999852337,2,2.1295922999852337,,,,,,sub86_NB,001,2026-01-29_10h51.01.160,recognitionstage,,2025.1.1,59.61386904974574,2026-01-29 10h51.55.310557 +0530,
,,,28,28,0,7,frames\Vid7_EM_T.png,frames\Vid7_L.png,['r'],1,[5.534136000002036],[None],4,1.3149091000086628,,,,,0,28,28,6,1809.071673999977,,24,Male,Right handed,Corrected to normal,,,,,,,,,,,,,,,,,,,,,,,,,,,,,,,,,,,,,,,,1809.0468544999894,1809.071673999977,1809.071673999977,1809.071673999977,1809.071673999977,1809.071673999977,1809.071673999977,1814.6198611999862,['r'],1,[5.534136000002036],[None],1814.6210451999796,1814.6345763999852,1814.6345763999852,1814.6345763999852,1815.9528933999827,4,1.3149091000086628,4,1.3149091000086628,,,,,,sub86_NB,001,2026-01-29_10h51.01.160,recognitionstage,,2025.1.1,59.61386904974574,2026-01-29 10h51.55.310557 +0530,
,,,29,29,0,4,frames\Vid4_EM_T.png,frames\Vid4_L.png,['l'],0,[13.711884900025325],[None],3,1.6984129000047687,,,,,0,29,29,3,1816.0379074999946,,24,Male,Right handed,Corrected to normal,,,,,,,,,,,,,,,,,,,,,,,,,,,,,,,,,,,,,,,,1816.0174212999991,1816.0379074999946,1816.0379074999946,1816.0379074999946,1816.0379074999946,1816.0379074999946,1816.0379074999946,1829.7537835999974,['l'],0,[13.711884900025325],[None],1829.7544860999915,1829.7678545999806,1829.7678545999806,1829.7678545999806,1831.468894599995,3,1.6984129000047687,3,1.6984129000047687,,,,,,sub86_NB,001,2026-01-29_10h51.01.160,recognitionstage,,2025.1.1,59.61386904974574,2026-01-29 10h51.55.310557 +0530,
,,,30,30,0,20,frames\Vid20_EM_T.png,frames\Vid20_L.png,['r'],1,[4.373412699991604],[None],3,2.265588000009302,,,,,0,30,30,19,1831.5043560999911,,24,Male,Right handed,Corrected to normal,,,,,,,,,,,,,,,,,,,,,,,,,,,,,,,,,,,,,,,,1831.490729299985,1831.5043560999911,1831.5043560999911,1831.5043560999911,1831.5043560999911,1831.5043560999911,1831.5043560999911,1835.886250999989,['r'],1,[4.373412699991604],[None],1835.8868268999795,1835.9013551999815,1835.9013551999815,1835.9013551999815,1838.1683024999802,3,2.265588000009302,3,2.265588000009302,,,,,,sub86_NB,001,2026-01-29_10h51.01.160,recognitionstage,,2025.1.1,59.61386904974574,2026-01-29 10h51.55.310557 +0530,
,,,31,31,0,18,frames\Vid18_EM_T.png,frames\Vid18_L.png,['l'],1,[3.387998799997149],[None],5,2.0484533999988344,,,,,0,31,31,17,1838.2178821999987,,24,Male,Right handed,Corrected to normal,,,,,,,,,,,,,,,,,,,,,,,,,,,,,,,,,,,,,,,,1838.2023312999809,1838.2178821999987,1838.2178821999987,1838.2178821999987,1838.2178821999987,1838.2178821999987,1838.2178821999987,1841.6201385999739,['l'],1,[3.387998799997149],[None],1841.621225299983,1841.6350449999736,1841.6350449999736,1841.6350449999736,1843.6853298999777,5,2.0484533999988344,5,2.0484533999988344,,,,,,sub86_NB,001,2026-01-29_10h51.01.160,recognitionstage,,2025.1.1,59.61386904974574,2026-01-29 10h51.55.310557 +0530,
,,,32,32,0,24,frames\Vid24_BB_T.png,frames\Vid24_L.png,['l'],1,[9.99895359997754],[None],5,1.41460879999795,,,,,0,32,32,23,1843.7350920999888,,24,Male,Right handed,Corrected to normal,,,,,,,,,,,,,,,,,,,,,,,,,,,,,,,,,,,,,,,,1843.7133278999827,1843.7350920999888,1843.7350920999888,1843.7350920999888,1843.7350920999888,1843.7350920999888,1843.7350920999888,1853.7371854999801,['l'],1,[9.99895359997754],[None],1853.7381278999965,1853.751613499975,1853.751613499975,1853.751613499975,1855.1690242999757,5,1.41460879999795,5,1.41460879999795,,,,,,sub86_NB,001,2026-01-29_10h51.01.160,recognitionstage,,2025.1.1,59.61386904974574,2026-01-29 10h51.55.310557 +0530,
,,,33,33,0,39,frames\Vid39_BB_T.png,frames\Vid39_L.png,['r'],1,[6.356383700011065],[None],5,1.2485662999970373,,,,,0,33,33,38,1855.2015367999848,,24,Male,Right handed,Corrected to normal,,,,,,,,,,,,,,,,,,,,,,,,,,,,,,,,,,,,,,,,1855.1953127999732,1855.2015367999848,1855.2015367999848,1855.2015367999848,1855.2015367999848,1855.2015367999848,1855.2015367999848,1861.5701262999792,['r'],1,[6.356383700011065],[None],1861.5713650999824,1861.5848992999818,1861.5848992999818,1861.5848992999818,1862.8357767999987,5,1.2485662999970373,5,1.2485662999970373,,,,,,sub86_NB,001,2026-01-29_10h51.01.160,recognitionstage,,2025.1.1,59.61386904974574,2026-01-29 10h51.55.310557 +0530,
,,,34,34,0,30,frames\Vid30_EM_T.png,frames\Vid30_L.png,['r'],1,[10.194011200015666],[None],4,1.0976160000136588,,,,,0,34,34,29,1862.8680070999835,,24,Male,Right handed,Corrected to normal,,,,,,,,,,,,,,,,,,,,,,,,,,,,,,,,,,,,,,,,1862.8597788999905,1862.8680070999835,1862.8680070999835,1862.8680070999835,1862.8680070999835,1862.8680070999835,1862.8680070999835,1873.070380899997,['r'],1,[10.194011200015666],[None],1873.0716012999765,1873.0849010999955,1873.0849010999955,1873.0849010999955,1874.1860959999904,4,1.0976160000136588,4,1.0976160000136588,,,,,,sub86_NB,001,2026-01-29_10h51.01.160,recognitionstage,,2025.1.1,59.61386904974574,2026-01-29 10h51.55.310557 +0530,
,,,35,35,0,17,frames\Vid17_BB_T.png,frames\Vid17_L.png,['l'],1,[5.9149503000080585],[None],5,1.2963458999875002,,,,,0,35,35,16,1874.2349657999875,,24,Male,Right handed,Corrected to normal,,,,,,,,,,,,,,,,,,,,,,,,,,,,,,,,,,,,,,,,1874.2252802999865,1874.2349657999875,1874.2349657999875,1874.2349657999875,1874.2349657999875,1874.2349657999875,1874.2349657999875,1880.1548654999933,['l'],1,[5.9149503000080585],[None],1880.1561379999912,1880.182800199982,1880.182800199982,1880.182800199982,1881.4695725999773,5,1.2963458999875002,5,1.2963458999875002,,,,,,sub86_NB,001,2026-01-29_10h51.01.160,recognitionstage,,2025.1.1,59.61386904974574,2026-01-29 10h51.55.310557 +0530,
,,,36,36,0,14,frames\Vid14_BB_T.png,frames\Vid14_L.png,['r'],0,[6.764782499987632],[None],1,1.664371699996991,,,,,0,36,36,13,1881.5532519999833,,24,Male,Right handed,Corrected to normal,,,,,,,,,,,,,,,,,,,,,,,,,,,,,,,,,,,,,,,,1881.5301290999923,1881.5532519999833,1881.5532519999833,1881.5532519999833,1881.5532519999833,1881.5532519999833,1881.5532519999833,1888.3197580999986,['r'],0,[6.764782499987632],[None],1888.321000899974,1888.3349693999917,1888.3349693999917,1888.3349693999917,1890.003058799979,1,1.664371699996991,1,1.664371699996991,,,,,,sub86_NB,001,2026-01-29_10h51.01.160,recognitionstage,,2025.1.1,59.61386904974574,2026-01-29 10h51.55.310557 +0530,
,,,37,37,0,37,frames\Vid37_BB_T.png,frames\Vid37_L.png,['r'],1,[3.9837200999900233],[None],5,1.1157564999884926,,,,,0,37,37,36,1890.0540899999905,,24,Male,Right handed,Corrected to normal,,,,,,,,,,,,,,,,,,,,,,,,,,,,,,,,,,,,,,,,1890.0302142,1890.0540899999905,1890.0540899999905,1890.0540899999905,1890.0540899999905,1890.0540899999905,1890.0540899999905,1894.0529261999764,['r'],1,[3.9837200999900233],[None],1894.0537711999787,1894.0684204999998,1894.0684204999998,1894.0684204999998,1895.1852908999717,5,1.1157564999884926,5,1.1157564999884926,,,,,,sub86_NB,001,2026-01-29_10h51.01.160,recognitionstage,,2025.1.1,59.61386904974574,2026-01-29 10h51.55.310557 +0530,
,,,38,38,0,3,frames\Vid3_BB_T.png,frames\Vid3_L.png,['l'],0,[5.890050699992571],[None],5,1.315061200002674,,,,,0,38,38,2,1895.2518345999997,,24,Male,Right handed,Corrected to normal,,,,,,,,,,,,,,,,,,,,,,,,,,,,,,,,,,,,,,,,1895.2378759999992,1895.2518345999997,1895.2518345999997,1895.2518345999997,1895.2518345999997,1895.2518345999997,1895.2518345999997,1901.1539696999826,['l'],0,[5.890050699992571],[None],1901.1552238999866,1901.1830759999866,1901.1830759999866,1901.1830759999866,1902.4853084999777,5,1.315061200002674,5,1.315061200002674,,,,,,sub86_NB,001,2026-01-29_10h51.01.160,recognitionstage,,2025.1.1,59.61386904974574,2026-01-29 10h51.55.310557 +0530,
,,,39,39,0,26,frames\Vid26_EM_T.png,frames\Vid26_L.png,['l'],1,[9.596865900006378],[None],5,1.8812392999825533,,,,,0,39,39,25,1902.5371800999856,,24,Male,Right handed,Corrected to normal,,,,,,,,,,,,,,,,,,,,,,,,,,,,,,,,,,,,,,,,1902.5174603999767,1902.5371800999856,1902.5371800999856,1902.5371800999856,1902.5371800999856,1902.5371800999856,1902.5371800999856,1912.137324499985,['l'],1,[9.596865900006378],[None],1912.1386198999826,1912.1663073999807,1912.1663073999807,1912.1663073999807,1914.0357073999767,5,1.8812392999825533,5,1.8812392999825533,,,,,,sub86_NB,001,2026-01-29_10h51.01.160,recognitionstage,,2025.1.1,59.61386904974574,2026-01-29 10h51.55.310557 +0530,
,,,,,,,,,,,,,,,,,,,,,,,,,24,Male,Right handed,Corrected to normal,,,,,,,,,,,,,,,,,,,,,,,,,,,,,,,,,,,,,,,,,,,,,,,,,,,,,,,,,,,,,1914.0358192999847,1914.0525917999912,1914.0525917999912,1934.0362686999724,None,sub86_NB,001,2026-01-29_10h51.01.160,recognitionstage,,2025.1.1,59.61386904974574,2026-01-29 10h51.55.310557 +0530,
