path,duration,is_repeat,thisN,thisTrialN,thisRepN,movie_id,target_img,lure_img,resp.keys,resp.corr,resp.rt,resp.duration,conf_radio.response,conf_radio.rt,movie.thisRepN,movie.thisTrialN,movie.thisN,movie.thisIndex,recogloop.thisRepN,recogloop.thisTrialN,recogloop.thisN,recogloop.thisIndex,thisRow.t,notes,age,gender,handedness,vision,caffeine_2h,alcohol_smoke_12h,demographics.started,demographics.stopped,Instructions.started,text1.started,key_resp.started,Instructions.stopped,key_resp.keys,key_resp.rt,key_resp.duration,instruction_2.started,text2.started,key_resp_2.started,instruction_2.stopped,key_resp_2.keys,key_resp_2.rt,key_resp_2.duration,Videos.started,movie_2.started,vigilance_resp.started,movie_2.stopped,Videos.stopped,movie.vigilance_resp.keys,vigilance_pressed,vigilance_correct,ISI.started,text.started,text.stopped,ISI.stopped,movie.vigilance_resp.rt,movie.vigilance_resp.duration,recognition.started,text_4.started,key_resp_3.started,recognition.stopped,key_resp_3.keys,key_resp_3.rt,key_resp_3.duration,recognition_task.started,leftimage.started,rightimage.started,resp.started,frames_question.started,right_label.started,left_label.started,recognition_task.stopped,recogloop.resp.keys,recogloop.resp.corr,recogloop.resp.rt,recogloop.resp.duration,confidence.started,conf_text.started,conf_radio.started,conf_label.started,confidence.stopped,recogloop.conf_radio.response,recogloop.conf_radio.rt,confidence,confidence_rt,thank_you.started,text_6.started,key_resp_4.started,thank_you.stopped,key_resp_4.keys,participant,session,date,expName,expVersion,psychopyVersion,frameRate,expStart,...103
,,,,,,,,,,,,,,,,,,,,,,,,,22,Female,Right handed,Corrected to normal,Caffeine consumed in last 2 hours?,Alcohol or smoking in last 12 hours?,0.009066200000233948,0.011514700017869473,,,,,,,,,,,,,,,,,,,,,,,,,,,,,,,,,,,,,,,,,,,,,,,,,,,,,,,,,,,,,,sub83_NB,001,2026-01-28_22h02.58.114,recognitionstage,,2025.1.1,59.92114377773973,2026-01-28 22h03.41.762629 +0530,
,,,,,,,,,,,,,,,,,,,,,,,,,22,Female,Right handed,Corrected to normal,,,,,0.01153740001609549,0.0279519000032451,0.0279519000032451,7.279515000001993,space,7.24971689999802,None,,,,,,,,,,,,,,,,,,,,,,,,,,,,,,,,,,,,,,,,,,,,,,,,,,,,,,,sub83_NB,001,2026-01-28_22h02.58.114,recognitionstage,,2025.1.1,59.92114377773973,2026-01-28 22h03.41.762629 +0530,
,,,,,,,,,,,,,,,,,,,,,,,,,22,Female,Right handed,Corrected to normal,,,,,,,,,,,,7.279561300005298,7.296394200006034,7.296394200006034,13.01324480000767,space,5.709532599983504,None,,,,,,,,,,,,,,,,,,,,,,,,,,,,,,,,,,,,,,,,,,,,,,,,sub83_NB,001,2026-01-28_22h02.58.114,recognitionstage,,2025.1.1,59.92114377773973,2026-01-28 22h03.41.762629 +0530,
Trimmed_videos/natural_36.mp4,18,0,44,44,0,,,,,,,,,,0,44,44,39,,,,,1535.5444523000042,,22,Female,Right handed,Corrected to normal,,,,,,,,,,,,,,,,,,,1535.5015980000026,1535.5444523000042,1535.5444523000042,1554.4787581000128,1554.3347900999943,None,0,1,1554.4702471999917,1554.4787581000128,1556.9787766000081,1556.9647040000127,10.280240299995057,None,1556.9648020000022,1556.9787766000081,1556.9787766000081,1588.5798101999972,space,31.595654699980514,None,,,,,,,,,,,,,,,,,,,,,,,,,,,sub83_NB,001,2026-01-28_22h02.58.114,recognitionstage,,2025.1.1,59.92114377773973,2026-01-28 22h03.41.762629 +0530,
,,,0,0,0,13,frames\Vid13_BB_T.png,frames\Vid13_L.png,['l'],1,[10.29844630000298],[None],5,3.081824599998072,,,,,0,0,0,12,1588.6436063,,22,Female,Right handed,Corrected to normal,,,,,,,,,,,,,,,,,,,,,,,,,,,,,,,,,,,,,,,,1588.6207757999946,1588.6436063,1588.6436063,1588.6436063,1588.6436063,1588.6436063,1588.6436063,1598.9462806000083,['l'],1,[10.29844630000298],[None],1598.9472804999969,1598.9613826000132,1598.9613826000132,1598.9613826000132,1602.0453950999945,5,3.081824599998072,5,3.081824599998072,,,,,,sub83_NB,001,2026-01-28_22h02.58.114,recognitionstage,,2025.1.1,59.92114377773973,2026-01-28 22h03.41.762629 +0530,
,,,1,1,0,28,frames\Vid28_EM_T.png,frames\Vid28_L.png,['r'],1,[4.008722900005523],[None],5,2.2988561999809463,,,,,0,1,1,27,1602.0932026999944,,22,Female,Right handed,Corrected to normal,,,,,,,,,,,,,,,,,,,,,,,,,,,,,,,,,,,,,,,,1602.0735658000049,1602.0932026999944,1602.0932026999944,1602.0932026999944,1602.0932026999944,1602.0932026999944,1602.0932026999944,1606.1132526000147,['r'],1,[4.008722900005523],[None],1606.1140967000101,1606.1277797000075,1606.1277797000075,1606.1277797000075,1608.4285823999962,5,2.2988561999809463,5,2.2988561999809463,,,,,,sub83_NB,001,2026-01-28_22h02.58.114,recognitionstage,,2025.1.1,59.92114377773973,2026-01-28 22h03.41.762629 +0530,
,,,2,2,0,22,frames\Vid22_EM_T.png,frames\Vid22_L.png,['l'],1,[5.232710699987365],[None],5,2.0489999999990687,,,,,0,2,2,21,1608.461243800004,,22,Female,Right handed,Corrected to normal,,,,,,,,,,,,,,,,,,,,,,,,,,,,,,,,,,,,,,,,1608.4426888000162,1608.461243800004,1608.461243800004,1608.461243800004,1608.461243800004,1608.461243800004,1608.461243800004,1613.696473899996,['l'],1,[5.232710699987365],[None],1613.6974965000118,1613.7116052999918,1613.7116052999918,1613.7116052999918,1615.7621946000145,5,2.0489999999990687,5,2.0489999999990687,,,,,,sub83_NB,001,2026-01-28_22h02.58.114,recognitionstage,,2025.1.1,59.92114377773973,2026-01-28 22h03.41.762629 +0530,
,,,3,3,0,36,frames\Vid36_BB_T.png,frames\Vid36_L.png,['l'],1,[2.739385199995013],[None],5,1.731404999998631,,,,,0,3,3,35,1615.7946138000116,,22,Female,Right handed,Corrected to normal,,,,,,,,,,,,,,,,,,,,,,,,,,,,,,,,,,,,,,,,1615.7759802000073,1615.7946138000116,1615.7946138000116,1615.7946138000116,1615.7946138000116,1615.7946138000116,1615.7946138000116,1618.5470662000007,['l'],1,[2.739385199995013],[None],1618.54822289999,1618.5611374000146,1618.5611374000146,1618.5611374000146,1620.2955996000092,5,1.731404999998631,5,1.731404999998631,,,,,,sub83_NB,001,2026-01-28_22h02.58.114,recognitionstage,,2025.1.1,59.92114377773973,2026-01-28 22h03.41.762629 +0530,
,,,4,4,0,24,frames\Vid24_BB_T.png,frames\Vid24_L.png,['l'],1,[3.670080700016115],[None],5,1.6970373999793082,,,,,0,4,4,23,1620.327994399995,,22,Female,Right handed,Corrected to normal,,,,,,,,,,,,,,,,,,,,,,,,,,,,,,,,,,,,,,,,1620.308339100011,1620.327994399995,1620.327994399995,1620.327994399995,1620.327994399995,1620.327994399995,1620.327994399995,1624.0147019000142,['l'],1,[3.670080700016115],[None],1624.015778800007,1624.0278340000077,1624.0278340000077,1624.0278340000077,1625.7289651000174,5,1.6970373999793082,5,1.6970373999793082,,,,,,sub83_NB,001,2026-01-28_22h02.58.114,recognitionstage,,2025.1.1,59.92114377773973,2026-01-28 22h03.41.762629 +0530,
,,,5,5,0,37,frames\Vid37_BB_T.png,frames\Vid37_L.png,['l'],1,[3.436843500006944],[None],5,1.5139963999972679,,,,,0,5,5,36,1625.761263399996,,22,Female,Right handed,Corrected to normal,,,,,,,,,,,,,,,,,,,,,,,,,,,,,,,,,,,,,,,,1625.7412938000052,1625.761263399996,1625.761263399996,1625.761263399996,1625.761263399996,1625.761263399996,1625.761263399996,1629.213786600012,['l'],1,[3.436843500006944],[None],1629.2149051000015,1629.2277606000134,1629.2277606000134,1629.2277606000134,1630.7454549999966,5,1.5139963999972679,5,1.5139963999972679,,,,,,sub83_NB,001,2026-01-28_22h02.58.114,recognitionstage,,2025.1.1,59.92114377773973,2026-01-28 22h03.41.762629 +0530,
,,,6,6,0,8,frames\Vid8_BB_T.png,frames\Vid8_L.png,['l'],1,[9.331090199993923],[None],5,2.3150711999915075,,,,,0,6,6,7,1630.795071600005,,22,Female,Right handed,Corrected to normal,,,,,,,,,,,,,,,,,,,,,,,,,,,,,,,,,,,,,,,,1630.7837272000033,1630.795071600005,1630.795071600005,1630.795071600005,1630.795071600005,1630.795071600005,1630.795071600005,1640.129805100005,['l'],1,[9.331090199993923],[None],1640.1308223000087,1640.144836499996,1640.144836499996,1640.144836499996,1642.4621740000148,5,2.3150711999915075,5,2.3150711999915075,,,,,,sub83_NB,001,2026-01-28_22h02.58.114,recognitionstage,,2025.1.1,59.92114377773973,2026-01-28 22h03.41.762629 +0530,
,,,7,7,0,31,frames\Vid31_EM_T.png,frames\Vid31_L.png,['r'],1,[3.1713316999957897],[None],5,2.0647402000031434,,,,,0,7,7,30,1642.4826571000158,,22,Female,Right handed,Corrected to normal,,,,,,,,,,,,,,,,,,,,,,,,,,,,,,,,,,,,,,,,1642.4713342000032,1642.4826571000158,1642.4826571000158,1642.4826571000158,1642.4826571000158,1642.4826571000158,1642.4826571000158,1645.6630956000008,['r'],1,[3.1713316999957897],[None],1645.6640823000052,1645.6781581999967,1645.6781581999967,1645.6781581999967,1647.7456469000026,5,2.0647402000031434,5,2.0647402000031434,,,,,,sub83_NB,001,2026-01-28_22h02.58.114,recognitionstage,,2025.1.1,59.92114377773973,2026-01-28 22h03.41.762629 +0530,
,,,8,8,0,6,frames\Vid6_BB_T.png,frames\Vid6_L.png,['r'],1,[5.3630949999787845],[None],5,1.8476681000029203,,,,,0,8,8,5,1647.7950277999917,,22,Female,Right handed,Corrected to normal,,,,,,,,,,,,,,,,,,,,,,,,,,,,,,,,,,,,,,,,1647.7878325000056,1647.7950277999917,1647.7950277999917,1647.7950277999917,1647.7950277999917,1647.7950277999917,1647.7950277999917,1653.163931499992,['r'],1,[5.3630949999787845],[None],1653.1653747000091,1653.1781404000067,1653.1781404000067,1653.1781404000067,1655.0286617999955,5,1.8476681000029203,5,1.8476681000029203,,,,,,sub83_NB,001,2026-01-28_22h02.58.114,recognitionstage,,2025.1.1,59.92114377773973,2026-01-28 22h03.41.762629 +0530,
,,,9,9,0,9,frames\Vid9_EM_T.png,frames\Vid9_L.png,['l'],1,[5.884488799987594],[None],3,1.8640281000116374,,,,,0,9,9,8,1655.0814471000049,,22,Female,Right handed,Corrected to normal,,,,,,,,,,,,,,,,,,,,,,,,,,,,,,,,,,,,,,,,1655.0672144000127,1655.0814471000049,1655.0814471000049,1655.0814471000049,1655.0814471000049,1655.0814471000049,1655.0814471000049,1660.9804797999968,['l'],1,[5.884488799987594],[None],1660.9813036000123,1660.99532300001,1660.99532300001,1660.99532300001,1662.8621619000041,3,1.8640281000116374,3,1.8640281000116374,,,,,,sub83_NB,001,2026-01-28_22h02.58.114,recognitionstage,,2025.1.1,59.92114377773973,2026-01-28 22h03.41.762629 +0530,
,,,10,10,0,39,frames\Vid39_BB_T.png,frames\Vid39_L.png,['l'],1,[4.0519879999919794],[None],5,1.9484064999851398,,,,,0,10,10,38,1662.8820052999945,,22,Female,Right handed,Corrected to normal,,,,,,,,,,,,,,,,,,,,,,,,,,,,,,,,,,,,,,,,1662.8705363000045,1662.8820052999945,1662.8820052999945,1662.8820052999945,1662.8820052999945,1662.8820052999945,1662.8820052999945,1666.9463778999925,['l'],1,[4.0519879999919794],[None],1666.9474076000042,1666.9615660000127,1666.9615660000127,1666.9615660000127,1668.9123173000116,5,1.9484064999851398,5,1.9484064999851398,,,,,,sub83_NB,001,2026-01-28_22h02.58.114,recognitionstage,,2025.1.1,59.92114377773973,2026-01-28 22h03.41.762629 +0530,
,,,11,11,0,14,frames\Vid14_BB_T.png,frames\Vid14_L.png,['l'],1,[4.619835799996508],[None],5,2.032327599998098,,,,,0,11,11,13,1668.978177300014,,22,Female,Right handed,Corrected to normal,,,,,,,,,,,,,,,,,,,,,,,,,,,,,,,,,,,,,,,,1668.9573524000007,1668.978177300014,1668.978177300014,1668.978177300014,1668.978177300014,1668.978177300014,1668.978177300014,1673.612628200004,['l'],1,[4.619835799996508],[None],1673.6135005000106,1673.628620500007,1673.628620500007,1673.628620500007,1675.6626122000162,5,2.032327599998098,5,2.032327599998098,,,,,,sub83_NB,001,2026-01-28_22h02.58.114,recognitionstage,,2025.1.1,59.92114377773973,2026-01-28 22h03.41.762629 +0530,
,,,12,12,0,32,frames\Vid32_EM_T.png,frames\Vid32_L.png,['l'],1,[3.6848131000006106],[None],5,1.498046799999429,,,,,0,12,12,31,1675.6971230999916,,22,Female,Right handed,Corrected to normal,,,,,,,,,,,,,,,,,,,,,,,,,,,,,,,,,,,,,,,,1675.6746513000107,1675.6971230999916,1675.6971230999916,1675.6971230999916,1675.6971230999916,1675.6971230999916,1675.6971230999916,1679.3965084000083,['l'],1,[3.6848131000006106],[None],1679.3975814000005,1679.411776199995,1679.411776199995,1679.411776199995,1680.9124899000162,5,1.498046799999429,5,1.498046799999429,,,,,,sub83_NB,001,2026-01-28_22h02.58.114,recognitionstage,,2025.1.1,59.92114377773973,2026-01-28 22h03.41.762629 +0530,
,,,13,13,0,1,frames\Vid1_EM_T.png,frames\Vid1_L.png,['r'],1,[6.875521400012076],[None],5,1.497465699998429,,,,,0,13,13,0,1680.9786050000112,,22,Female,Right handed,Corrected to normal,,,,,,,,,,,,,,,,,,,,,,,,,,,,,,,,,,,,,,,,1680.9591381000064,1680.9786050000112,1680.9786050000112,1680.9786050000112,1680.9786050000112,1680.9786050000112,1680.9786050000112,1687.8640559999913,['r'],1,[6.875521400012076],[None],1687.865253099997,1687.8778997999907,1687.8778997999907,1687.8778997999907,1689.3786918999976,5,1.497465699998429,5,1.497465699998429,,,,,,sub83_NB,001,2026-01-28_22h02.58.114,recognitionstage,,2025.1.1,59.92114377773973,2026-01-28 22h03.41.762629 +0530,
,,,14,14,0,11,frames\Vid11_EM_T.png,frames\Vid11_L.png,['r'],1,[3.174560500017833],[None],5,1.1639482000027783,,,,,0,14,14,10,1689.4315871,,22,Female,Right handed,Corrected to normal,,,,,,,,,,,,,,,,,,,,,,,,,,,,,,,,,,,,,,,,1689.4206919000135,1689.4315871,1689.4315871,1689.4315871,1689.4315871,1689.4315871,1689.4315871,1692.6138335000142,['r'],1,[3.174560500017833],[None],1692.6148474999936,1692.6428601999942,1692.6428601999942,1692.6428601999942,1693.7957072000136,5,1.1639482000027783,5,1.1639482000027783,,,,,,sub83_NB,001,2026-01-28_22h02.58.114,recognitionstage,,2025.1.1,59.92114377773973,2026-01-28 22h03.41.762629 +0530,
,,,15,15,0,27,frames\Vid27_BB_T.png,frames\Vid27_L.png,['r'],1,[5.430567499977769],[None],5,0.9814575999916997,,,,,0,15,15,26,1693.8154775000003,,22,Female,Right handed,Corrected to normal,,,,,,,,,,,,,,,,,,,,,,,,,,,,,,,,,,,,,,,,1693.8049070000125,1693.8154775000003,1693.8154775000003,1693.8154775000003,1693.8154775000003,1693.8154775000003,1693.8154775000003,1699.2639177000092,['r'],1,[5.430567499977769],[None],1699.2650980000035,1699.2780231999932,1699.2780231999932,1699.2780231999932,1700.2617933000147,5,0.9814575999916997,5,0.9814575999916997,,,,,,sub83_NB,001,2026-01-28_22h02.58.114,recognitionstage,,2025.1.1,59.92114377773973,2026-01-28 22h03.41.762629 +0530,
,,,16,16,0,26,frames\Vid26_EM_T.png,frames\Vid26_L.png,['r'],1,[2.119772500009276],[None],5,0.7796396000194363,,,,,0,16,16,25,1700.2943940999976,,22,Female,Right handed,Corrected to normal,,,,,,,,,,,,,,,,,,,,,,,,,,,,,,,,,,,,,,,,1700.2762984000146,1700.2943940999976,1700.2943940999976,1700.2943940999976,1700.2943940999976,1700.2943940999976,1700.2943940999976,1702.4151839000115,['r'],1,[2.119772500009276],[None],1702.416719300003,1702.4430932000105,1702.4430932000105,1702.4430932000105,1703.2121380000026,5,0.7796396000194363,5,0.7796396000194363,,,,,,sub83_NB,001,2026-01-28_22h02.58.114,recognitionstage,,2025.1.1,59.92114377773973,2026-01-28 22h03.41.762629 +0530,
,,,17,17,0,40,frames\Vid40_EM_T.png,frames\Vid40_L.png,['r'],1,[3.5675762000028044],[None],5,0.6316214999824297,,,,,0,17,17,39,1703.2303310999996,,22,Female,Right handed,Corrected to normal,,,,,,,,,,,,,,,,,,,,,,,,,,,,,,,,,,,,,,,,1703.2208110000065,1703.2303310999996,1703.2303310999996,1703.2303310999996,1703.2303310999996,1703.2303310999996,1703.2303310999996,1706.8128676000051,['r'],1,[3.5675762000028044],[None],1706.8138637999946,1706.8281750000024,1706.8281750000024,1706.8281750000024,1707.4620831999928,5,0.6316214999824297,5,0.6316214999824297,,,,,,sub83_NB,001,2026-01-28_22h02.58.114,recognitionstage,,2025.1.1,59.92114377773973,2026-01-28 22h03.41.762629 +0530,
,,,18,18,0,15,frames\Vid15_BB_T.png,frames\Vid15_L.png,['l'],1,[3.461352700018324],[None],5,0.7642356000142172,,,,,0,18,18,14,1707.5286572000186,,22,Female,Right handed,Corrected to normal,,,,,,,,,,,,,,,,,,,,,,,,,,,,,,,,,,,,,,,,1707.5087149000028,1707.5286572000186,1707.5286572000186,1707.5286572000186,1707.5286572000186,1707.5286572000186,1707.5286572000186,1710.9965621000156,['l'],1,[3.461352700018324],[None],1710.9979272999917,1711.0113918000134,1711.0113918000134,1711.0113918000134,1711.7787429000018,5,0.7642356000142172,5,0.7642356000142172,,,,,,sub83_NB,001,2026-01-28_22h02.58.114,recognitionstage,,2025.1.1,59.92114377773973,2026-01-28 22h03.41.762629 +0530,
,,,19,19,0,35,frames\Vid35_EM_T.png,frames\Vid35_L.png,['l'],1,[4.406966900016414],[None],3,1.0808438000094611,,,,,0,19,19,34,1711.7990238000057,,22,Female,Right handed,Corrected to normal,,,,,,,,,,,,,,,,,,,,,,,,,,,,,,,,,,,,,,,,1711.7861427000025,1711.7990238000057,1711.7990238000057,1711.7990238000057,1711.7990238000057,1711.7990238000057,1711.7990238000057,1716.213563600002,['l'],1,[4.406966900016414],[None],1716.2145219999948,1716.2278140000126,1716.2278140000126,1716.2278140000126,1717.3120705000183,3,1.0808438000094611,3,1.0808438000094611,,,,,,sub83_NB,001,2026-01-28_22h02.58.114,recognitionstage,,2025.1.1,59.92114377773973,2026-01-28 22h03.41.762629 +0530,
,,,20,20,0,25,frames\Vid25_BB_T.png,frames\Vid25_L.png,['r'],0,[5.5404730000009295],[None],2,1.3471360999974422,,,,,0,20,20,24,1717.3295606000174,,22,Female,Right handed,Corrected to normal,,,,,,,,,,,,,,,,,,,,,,,,,,,,,,,,,,,,,,,,1717.3214765000157,1717.3295606000174,1717.3295606000174,1717.3295606000174,1717.3295606000174,1717.3295606000174,1717.3295606000174,1722.8805877999985,['r'],0,[5.5404730000009295],[None],1722.8815728999907,1722.8943196000182,1722.8943196000182,1722.8943196000182,1724.245277500013,2,1.3471360999974422,2,1.3471360999974422,,,,,,sub83_NB,001,2026-01-28_22h02.58.114,recognitionstage,,2025.1.1,59.92114377773973,2026-01-28 22h03.41.762629 +0530,
,,,21,21,0,17,frames\Vid17_BB_T.png,frames\Vid17_L.png,['l'],1,[7.3437662000069395],[None],2,0.8315169000125024,,,,,0,21,21,16,1724.2782515000144,,22,Female,Right handed,Corrected to normal,,,,,,,,,,,,,,,,,,,,,,,,,,,,,,,,,,,,,,,,1724.2692825999984,1724.2782515000144,1724.2782515000144,1724.2782515000144,1724.2782515000144,1724.2782515000144,1724.2782515000144,1731.6301679000026,['l'],1,[7.3437662000069395],[None],1731.6310702000046,1731.6444648000179,1731.6444648000179,1731.6444648000179,1732.4788421000121,2,0.8315169000125024,2,0.8315169000125024,,,,,,sub83_NB,001,2026-01-28_22h02.58.114,recognitionstage,,2025.1.1,59.92114377773973,2026-01-28 22h03.41.762629 +0530,
,,,22,22,0,2,frames\Vid2_BB_T.png,frames\Vid2_L.png,['l'],1,[2.5397061000112444],[None],5,1.1486710000026505,,,,,0,22,22,1,1732.5303008999908,,22,Female,Right handed,Corrected to normal,,,,,,,,,,,,,,,,,,,,,,,,,,,,,,,,,,,,,,,,1732.5169678000093,1732.5303008999908,1732.5303008999908,1732.5303008999908,1732.5303008999908,1732.5303008999908,1732.5303008999908,1735.0801748000085,['l'],1,[2.5397061000112444],[None],1735.0809942999913,1735.0944324000156,1735.0944324000156,1735.0944324000156,1736.2454215000034,5,1.1486710000026505,5,1.1486710000026505,,,,,,sub83_NB,001,2026-01-28_22h02.58.114,recognitionstage,,2025.1.1,59.92114377773973,2026-01-28 22h03.41.762629 +0530,
,,,23,23,0,3,frames\Vid3_BB_T.png,frames\Vid3_L.png,['l'],0,[2.916210499999579],[None],3,1.130667400022503,,,,,0,23,23,2,1736.298199700017,,22,Female,Right handed,Corrected to normal,,,,,,,,,,,,,,,,,,,,,,,,,,,,,,,,,,,,,,,,1736.286632800009,1736.298199700017,1736.298199700017,1736.298199700017,1736.298199700017,1736.298199700017,1736.298199700017,1739.2304445999907,['l'],0,[2.916210499999579],[None],1739.2314027000102,1739.2447859999957,1739.2447859999957,1739.2447859999957,1740.3789828000008,3,1.130667400022503,3,1.130667400022503,,,,,,sub83_NB,001,2026-01-28_22h02.58.114,recognitionstage,,2025.1.1,59.92114377773973,2026-01-28 22h03.41.762629 +0530,
,,,24,24,0,33,frames\Vid33_BB_T.png,frames\Vid33_L.png,['l'],1,[3.0952000000106636],[None],5,1.0495184999890625,,,,,0,24,24,32,1740.3988397000066,,22,Female,Right handed,Corrected to normal,,,,,,,,,,,,,,,,,,,,,,,,,,,,,,,,,,,,,,,,1740.3882556000026,1740.3988397000066,1740.3988397000066,1740.3988397000066,1740.3988397000066,1740.3988397000066,1740.3988397000066,1743.4962665000057,['l'],1,[3.0952000000106636],[None],1743.4971391000145,1743.5114138000063,1743.5114138000063,1743.5114138000063,1744.5617178000102,5,1.0495184999890625,5,1.0495184999890625,,,,,,sub83_NB,001,2026-01-28_22h02.58.114,recognitionstage,,2025.1.1,59.92114377773973,2026-01-28 22h03.41.762629 +0530,
,,,25,25,0,4,frames\Vid4_EM_T.png,frames\Vid4_L.png,['l'],1,[3.4983781999908388],[None],5,1.0139404000074137,,,,,0,25,25,3,1744.611725900002,,22,Female,Right handed,Corrected to normal,,,,,,,,,,,,,,,,,,,,,,,,,,,,,,,,,,,,,,,,1744.604524800001,1744.611725900002,1744.611725900002,1744.611725900002,1744.611725900002,1744.611725900002,1744.611725900002,1748.1139010000043,['l'],1,[3.4983781999908388],[None],1748.115122999996,1748.1284519000037,1748.1284519000037,1748.1284519000037,1749.1450650000188,5,1.0139404000074137,5,1.0139404000074137,,,,,,sub83_NB,001,2026-01-28_22h02.58.114,recognitionstage,,2025.1.1,59.92114377773973,2026-01-28 22h03.41.762629 +0530,
,,,26,26,0,10,frames\Vid10_BB_T.png,frames\Vid10_L.png,['r'],1,[4.047925199993188],[None],4,1.0146313000004739,,,,,0,26,26,9,1749.1981169999926,,22,Female,Right handed,Corrected to normal,,,,,,,,,,,,,,,,,,,,,,,,,,,,,,,,,,,,,,,,1749.187024200015,1749.1981169999926,1749.1981169999926,1749.1981169999926,1749.1981169999926,1749.1981169999926,1749.1981169999926,1753.247418999992,['r'],1,[4.047925199993188],[None],1753.2484004000144,1753.2614835000131,1753.2614835000131,1753.2614835000131,1754.2787992999947,4,1.0146313000004739,4,1.0146313000004739,,,,,,sub83_NB,001,2026-01-28_22h02.58.114,recognitionstage,,2025.1.1,59.92114377773973,2026-01-28 22h03.41.762629 +0530,
,,,27,27,0,38,frames\Vid38_EM_T.png,frames\Vid38_L.png,['l'],1,[2.6663020999985747],[None],5,1.0981337999983225,,,,,0,27,27,37,1754.2996478000132,,22,Female,Right handed,Corrected to normal,,,,,,,,,,,,,,,,,,,,,,,,,,,,,,,,,,,,,,,,1754.2883932999976,1754.2996478000132,1754.2996478000132,1754.2996478000132,1754.2996478000132,1754.2996478000132,1754.2996478000132,1756.9801618999918,['l'],1,[2.6663020999985747],[None],1756.981088600005,1756.9944351000013,1756.9944351000013,1756.9944351000013,1758.0949706000101,5,1.0981337999983225,5,1.0981337999983225,,,,,,sub83_NB,001,2026-01-28_22h02.58.114,recognitionstage,,2025.1.1,59.92114377773973,2026-01-28 22h03.41.762629 +0530,
,,,28,28,0,5,frames\Vid5_EM_T.png,frames\Vid5_L.png,['r'],1,[3.2130342999880668],[None],5,1.013677100010682,,,,,0,28,28,4,1758.1450066000107,,22,Female,Right handed,Corrected to normal,,,,,,,,,,,,,,,,,,,,,,,,,,,,,,,,,,,,,,,,1758.1230074999912,1758.1450066000107,1758.1450066000107,1758.1450066000107,1758.1450066000107,1758.1450066000107,1758.1450066000107,1761.3640432000102,['r'],1,[3.2130342999880668],[None],1761.3650573999912,1761.377774499997,1761.377774499997,1761.377774499997,1762.3952768000017,5,1.013677100010682,5,1.013677100010682,,,,,,sub83_NB,001,2026-01-28_22h02.58.114,recognitionstage,,2025.1.1,59.92114377773973,2026-01-28 22h03.41.762629 +0530,
,,,29,29,0,34,frames\Vid34_BB_T.png,frames\Vid34_L.png,['l'],1,[4.591336500016041],[None],5,1.0298962999950163,,,,,0,29,29,33,1762.414845899999,,22,Female,Right handed,Corrected to normal,,,,,,,,,,,,,,,,,,,,,,,,,,,,,,,,,,,,,,,,1762.4041182000074,1762.414845899999,1762.414845899999,1762.414845899999,1762.414845899999,1762.414845899999,1762.414845899999,1767.0138540999906,['l'],1,[4.591336500016041],[None],1767.0154443999927,1767.0283204000152,1767.0283204000152,1767.0283204000152,1768.061960299994,5,1.0298962999950163,5,1.0298962999950163,,,,,,sub83_NB,001,2026-01-28_22h02.58.114,recognitionstage,,2025.1.1,59.92114377773973,2026-01-28 22h03.41.762629 +0530,
,,,30,30,0,16,frames\Vid16_EM_T.png,frames\Vid16_L.png,['r'],1,[4.03820540002198],[None],3,0.9456170999910682,,,,,0,30,30,15,1768.1117448000005,,22,Female,Right handed,Corrected to normal,,,,,,,,,,,,,,,,,,,,,,,,,,,,,,,,,,,,,,,,1768.100978500006,1768.1117448000005,1768.1117448000005,1768.1117448000005,1768.1117448000005,1768.1117448000005,1768.1117448000005,1772.164850400004,['r'],1,[4.03820540002198],[None],1772.1663436999952,1772.1776830000163,1772.1776830000163,1772.1776830000163,1773.1287653000036,3,0.9456170999910682,3,0.9456170999910682,,,,,,sub83_NB,001,2026-01-28_22h02.58.114,recognitionstage,,2025.1.1,59.92114377773973,2026-01-28 22h03.41.762629 +0530,
,,,31,31,0,30,frames\Vid30_EM_T.png,frames\Vid30_L.png,['l'],1,[7.000814800005173],[None],2,2.4656107000191696,,,,,0,31,31,29,1773.1491131999937,,22,Female,Right handed,Corrected to normal,,,,,,,,,,,,,,,,,,,,,,,,,,,,,,,,,,,,,,,,1773.137600999995,1773.1491131999937,1773.1491131999937,1773.1491131999937,1773.1491131999937,1773.1491131999937,1773.1491131999937,1780.1632125000178,['l'],1,[7.000814800005173],[None],1780.1641677000152,1780.1778454000014,1780.1778454000014,1780.1778454000014,1782.6450035000162,2,2.4656107000191696,2,2.4656107000191696,,,,,,sub83_NB,001,2026-01-28_22h02.58.114,recognitionstage,,2025.1.1,59.92114377773973,2026-01-28 22h03.41.762629 +0530,
,,,32,32,0,29,frames\Vid29_BB_T.png,frames\Vid29_L.png,['l'],1,[4.734726300026523],[None],4,1.298364699992817,,,,,0,32,32,28,1782.6634598000092,,22,Female,Right handed,Corrected to normal,,,,,,,,,,,,,,,,,,,,,,,,,,,,,,,,,,,,,,,,1782.6553769000166,1782.6634598000092,1782.6634598000092,1782.6634598000092,1782.6634598000092,1782.6634598000092,1782.6634598000092,1787.4129413999908,['l'],1,[4.734726300026523],[None],1787.4138392000168,1787.4284116000053,1787.4284116000053,1787.4284116000053,1788.7287458000064,4,1.298364699992817,4,1.298364699992817,,,,,,sub83_NB,001,2026-01-28_22h02.58.114,recognitionstage,,2025.1.1,59.92114377773973,2026-01-28 22h03.41.762629 +0530,
,,,33,33,0,19,frames\Vid19_BB_T.png,frames\Vid19_L.png,['l'],1,[11.404886600008467],[None],4,1.3324543999915477,,,,,0,33,33,18,1788.7610654000018,,22,Female,Right handed,Corrected to normal,,,,,,,,,,,,,,,,,,,,,,,,,,,,,,,,,,,,,,,,1788.7392509999918,1788.7610654000018,1788.7610654000018,1788.7610654000018,1788.7610654000018,1788.7610654000018,1788.7610654000018,1800.1802870999963,['l'],1,[11.404886600008467],[None],1800.1811997000186,1800.194737999991,1800.194737999991,1800.194737999991,1801.5283894000167,4,1.3324543999915477,4,1.3324543999915477,,,,,,sub83_NB,001,2026-01-28_22h02.58.114,recognitionstage,,2025.1.1,59.92114377773973,2026-01-28 22h03.41.762629 +0530,
,,,34,34,0,21,frames\Vid21_BB_T.png,frames\Vid21_L.png,['l'],1,[2.772694400016917],[None],5,0.7975100000039674,,,,,0,34,34,20,1801.561310399993,,22,Female,Right handed,Corrected to normal,,,,,,,,,,,,,,,,,,,,,,,,,,,,,,,,,,,,,,,,1801.540380099992,1801.561310399993,1801.561310399993,1801.561310399993,1801.561310399993,1801.561310399993,1801.561310399993,1804.3476053999912,['l'],1,[2.772694400016917],[None],1804.348710499995,1804.361207800015,1804.361207800015,1804.361207800015,1805.1616922999965,5,0.7975100000039674,5,0.7975100000039674,,,,,,sub83_NB,001,2026-01-28_22h02.58.114,recognitionstage,,2025.1.1,59.92114377773973,2026-01-28 22h03.41.762629 +0530,
,,,35,35,0,18,frames\Vid18_EM_T.png,frames\Vid18_L.png,['r'],1,[3.650061399996048],[None],5,0.8144206999859307,,,,,0,35,35,17,1805.1801630000118,,22,Female,Right handed,Corrected to normal,,,,,,,,,,,,,,,,,,,,,,,,,,,,,,,,,,,,,,,,1805.172333399998,1805.1801630000118,1805.1801630000118,1805.1801630000118,1805.1801630000118,1805.1801630000118,1805.1801630000118,1808.847004900017,['r'],1,[3.650061399996048],[None],1808.8479492000188,1808.861270399997,1808.861270399997,1808.861270399997,1809.6787409000099,5,0.8144206999859307,5,0.8144206999859307,,,,,,sub83_NB,001,2026-01-28_22h02.58.114,recognitionstage,,2025.1.1,59.92114377773973,2026-01-28 22h03.41.762629 +0530,
,,,36,36,0,20,frames\Vid20_EM_T.png,frames\Vid20_L.png,['r'],1,[10.757555599993793],[None],2,1.2963478000019677,,,,,0,36,36,19,1809.6965832000133,,22,Female,Right handed,Corrected to normal,,,,,,,,,,,,,,,,,,,,,,,,,,,,,,,,,,,,,,,,1809.6850336999923,1809.6965832000133,1809.6965832000133,1809.6965832000133,1809.6965832000133,1809.6965832000133,1809.6965832000133,1820.4642953000148,['r'],1,[10.757555599993793],[None],1820.4659471999912,1820.4780311000068,1820.4780311000068,1820.4780311000068,1821.7790261000046,2,1.2963478000019677,2,1.2963478000019677,,,,,,sub83_NB,001,2026-01-28_22h02.58.114,recognitionstage,,2025.1.1,59.92114377773973,2026-01-28 22h03.41.762629 +0530,
,,,37,37,0,23,frames\Vid23_EM_T.png,frames\Vid23_L.png,['l'],1,[2.3069765999971423],[None],5,0.8130322000070009,,,,,0,37,37,22,1821.8112009000033,,22,Female,Right handed,Corrected to normal,,,,,,,,,,,,,,,,,,,,,,,,,,,,,,,,,,,,,,,,1821.7935821000137,1821.8112009000033,1821.8112009000033,1821.8112009000033,1821.8112009000033,1821.8112009000033,1821.8112009000033,1824.131547099998,['l'],1,[2.3069765999971423],[None],1824.1327576000185,1824.1595452000038,1824.1595452000038,1824.1595452000038,1824.9621701000142,5,0.8130322000070009,5,0.8130322000070009,,,,,,sub83_NB,001,2026-01-28_22h02.58.114,recognitionstage,,2025.1.1,59.92114377773973,2026-01-28 22h03.41.762629 +0530,
,,,38,38,0,7,frames\Vid7_EM_T.png,frames\Vid7_L.png,['r'],1,[4.145545900013531],[None],4,1.6453841000038665,,,,,0,38,38,6,1825.0286668000044,,22,Female,Right handed,Corrected to normal,,,,,,,,,,,,,,,,,,,,,,,,,,,,,,,,,,,,,,,,1825.0061390000046,1825.0286668000044,1825.0286668000044,1825.0286668000044,1825.0286668000044,1825.0286668000044,1825.0286668000044,1829.1818989000167,['r'],1,[4.145545900013531],[None],1829.183560400008,1829.2102416999987,1829.2102416999987,1829.2102416999987,1830.8449281000067,4,1.6453841000038665,4,1.6453841000038665,,,,,,sub83_NB,001,2026-01-28_22h02.58.114,recognitionstage,,2025.1.1,59.92114377773973,2026-01-28 22h03.41.762629 +0530,
,,,39,39,0,12,frames\Vid12_EM_T.png,frames\Vid12_L.png,['l'],1,[5.11661009999807],[None],5,0.8823772000032477,,,,,0,39,39,11,1830.8978346000076,,22,Female,Right handed,Corrected to normal,,,,,,,,,,,,,,,,,,,,,,,,,,,,,,,,,,,,,,,,1830.888973699999,1830.8978346000076,1830.8978346000076,1830.8978346000076,1830.8978346000076,1830.8978346000076,1830.8978346000076,1836.0298378000152,['l'],1,[5.11661009999807],[None],1836.030721499992,1836.0449816000182,1836.0449816000182,1836.0449816000182,1836.9289342999982,5,0.8823772000032477,5,0.8823772000032477,,,,,,sub83_NB,001,2026-01-28_22h02.58.114,recognitionstage,,2025.1.1,59.92114377773973,2026-01-28 22h03.41.762629 +0530,
,,,,,,,,,,,,,,,,,,,,,,,,,22,Female,Right handed,Corrected to normal,,,,,,,,,,,,,,,,,,,,,,,,,,,,,,,,,,,,,,,,,,,,,,,,,,,,,,,,,,,,,1836.9290556999913,1836.9455238000082,1836.9455238000082,1856.9293009999965,None,sub83_NB,001,2026-01-28_22h02.58.114,recognitionstage,,2025.1.1,59.92114377773973,2026-01-28 22h03.41.762629 +0530,
