path,duration,is_repeat,thisN,thisTrialN,thisRepN,movie_id,target_img,lure_img,resp.keys,resp.corr,resp.rt,resp.duration,conf_radio.response,conf_radio.rt,movie.thisRepN,movie.thisTrialN,movie.thisN,movie.thisIndex,recogloop.thisRepN,recogloop.thisTrialN,recogloop.thisN,recogloop.thisIndex,thisRow.t,notes,age,gender,handedness,vision,caffeine_2h,alcohol_smoke_12h,demographics.started,demographics.stopped,Instructions.started,text1.started,key_resp.started,Instructions.stopped,key_resp.keys,key_resp.rt,key_resp.duration,instruction_2.started,text2.started,key_resp_2.started,instruction_2.stopped,key_resp_2.keys,key_resp_2.rt,key_resp_2.duration,Videos.started,movie_2.started,vigilance_resp.started,movie_2.stopped,Videos.stopped,movie.vigilance_resp.keys,vigilance_pressed,vigilance_correct,ISI.started,text.started,text.stopped,ISI.stopped,movie.vigilance_resp.rt,movie.vigilance_resp.duration,recognition.started,text_4.started,key_resp_3.started,recognition.stopped,key_resp_3.keys,key_resp_3.rt,key_resp_3.duration,recognition_task.started,leftimage.started,rightimage.started,resp.started,frames_question.started,right_label.started,left_label.started,recognition_task.stopped,recogloop.resp.keys,recogloop.resp.corr,recogloop.resp.rt,recogloop.resp.duration,confidence.started,conf_text.started,conf_radio.started,conf_label.started,confidence.stopped,recogloop.conf_radio.response,recogloop.conf_radio.rt,confidence,confidence_rt,thank_you.started,text_6.started,key_resp_4.started,thank_you.stopped,key_resp_4.keys,key_resp_4.rt,key_resp_4.duration,participant,session,date,expName,expVersion,psychopyVersion,frameRate,expStart,...105
,,,,,,,,,,,,,,,,,,,,,,,,,24,Male,Right handed,Corrected to normal,Caffeine consumed in last 2 hours?,Alcohol or smoking in last 12 hours?,0.012851099978433922,0.07585959997959435,,,,,,,,,,,,,,,,,,,,,,,,,,,,,,,,,,,,,,,,,,,,,,,,,,,,,,,,,,,,,,,,sub84_NB,001,2026-01-28_22h42.26.016,recognitionstage,,2025.1.1,59.95710669080901,2026-01-28 22h43.35.223230 +0530,
,,,,,,,,,,,,,,,,,,,,,,,,,24,Male,Right handed,Corrected to normal,,,,,0.07588739998755045,0.09657209998113103,0.09657209998113103,23.367351900000358,space,23.268728700000793,None,,,,,,,,,,,,,,,,,,,,,,,,,,,,,,,,,,,,,,,,,,,,,,,,,,,,,,,,,sub84_NB,001,2026-01-28_22h42.26.016,recognitionstage,,2025.1.1,59.95710669080901,2026-01-28 22h43.35.223230 +0530,
,,,,,,,,,,,,,,,,,,,,,,,,,24,Male,Right handed,Corrected to normal,,,,,,,,,,,,23.367427399993176,23.383084599976428,23.383084599976428,35.78395640000235,space,12.398199900024338,None,,,,,,,,,,,,,,,,,,,,,,,,,,,,,,,,,,,,,,,,,,,,,,,,,,sub84_NB,001,2026-01-28_22h42.26.016,recognitionstage,,2025.1.1,59.95710669080901,2026-01-28 22h43.35.223230 +0530,
Trimmed_videos/natural_10.mp4,37,0,44,44,0,,,,,,,,,,0,44,44,11,,,,,1547.3314559999853,,24,Male,Right handed,Corrected to normal,,,,,,,,,,,,,,,,,,,1547.2849413999938,1547.3314559999853,1547.3314559999853,1584.6312769999786,1584.4861656999856,None,0,1,1584.621722699987,1584.6312769999786,1587.1330786999897,1587.1174948999833,2.8448187000176404,None,1587.1175848999992,1587.1330786999897,1587.1330786999897,1630.3353921999806,space,43.20074869997916,None,,,,,,,,,,,,,,,,,,,,,,,,,,,,,sub84_NB,001,2026-01-28_22h42.26.016,recognitionstage,,2025.1.1,59.95710669080901,2026-01-28 22h43.35.223230 +0530,
,,,0,0,0,13,frames\Vid13_BB_T.png,frames\Vid13_L.png,['l'],0,[5.488036900002044],[None],5,5.113574100018013,,,,,0,0,0,12,1630.414009399974,,24,Male,Right handed,Corrected to normal,,,,,,,,,,,,,,,,,,,,,,,,,,,,,,,,,,,,,,,,1630.3932520999806,1630.414009399974,1630.414009399974,1630.414009399974,1630.414009399974,1630.414009399974,1630.414009399974,1635.9182403000013,['l'],0,[5.488036900002044],[None],1635.9195976999763,1635.9465060999792,1635.9465060999792,1635.9465060999792,1641.0493281999952,5,5.113574100018013,5,5.113574100018013,,,,,,,,sub84_NB,001,2026-01-28_22h42.26.016,recognitionstage,,2025.1.1,59.95710669080901,2026-01-28 22h43.35.223230 +0530,
,,,1,1,0,39,frames\Vid39_BB_T.png,frames\Vid39_L.png,['l'],1,[9.900604900001781],[None],5,2.4319444999855477,,,,,0,1,1,38,1641.0972076999897,,24,Male,Right handed,Corrected to normal,,,,,,,,,,,,,,,,,,,,,,,,,,,,,,,,,,,,,,,,1641.0902630999917,1641.0972076999897,1641.0972076999897,1641.0972076999897,1641.0972076999897,1641.0972076999897,1641.0972076999897,1651.0005065999867,['l'],1,[9.900604900001781],[None],1651.0014875999768,1651.015499799978,1651.015499799978,1651.015499799978,1653.4499970999896,5,2.4319444999855477,5,2.4319444999855477,,,,,,,,sub84_NB,001,2026-01-28_22h42.26.016,recognitionstage,,2025.1.1,59.95710669080901,2026-01-28 22h43.35.223230 +0530,
,,,2,2,0,5,frames\Vid5_EM_T.png,frames\Vid5_L.png,['l'],0,[6.682537499989849],[None],2,2.3465922999894246,,,,,0,2,2,4,1653.5153121999756,,24,Male,Right handed,Corrected to normal,,,,,,,,,,,,,,,,,,,,,,,,,,,,,,,,,,,,,,,,1653.4948517000012,1653.5153121999756,1653.5153121999756,1653.5153121999756,1653.5153121999756,1653.5153121999756,1653.5153121999756,1660.2016418999992,['l'],0,[6.682537499989849],[None],1660.2029963999812,1660.2150475999806,1660.2150475999806,1660.2150475999806,1662.5665760999836,2,2.3465922999894246,2,2.3465922999894246,,,,,,,,sub84_NB,001,2026-01-28_22h42.26.016,recognitionstage,,2025.1.1,59.95710669080901,2026-01-28 22h43.35.223230 +0530,
,,,3,3,0,6,frames\Vid6_BB_T.png,frames\Vid6_L.png,['r'],1,[4.778723599971272],[None],5,1.8636318999924697,,,,,0,3,3,5,1662.6509709999955,,24,Male,Right handed,Corrected to normal,,,,,,,,,,,,,,,,,,,,,,,,,,,,,,,,,,,,,,,,1662.628191099997,1662.6509709999955,1662.6509709999955,1662.6509709999955,1662.6509709999955,1662.6509709999955,1662.6509709999955,1667.434925199981,['r'],1,[4.778723599971272],[None],1667.4361476999766,1667.4482906999765,1667.4482906999765,1667.4482906999765,1669.316161499999,5,1.8636318999924697,5,1.8636318999924697,,,,,,,,sub84_NB,001,2026-01-28_22h42.26.016,recognitionstage,,2025.1.1,59.95710669080901,2026-01-28 22h43.35.223230 +0530,
,,,4,4,0,34,frames\Vid34_BB_T.png,frames\Vid34_L.png,['r'],1,[4.49404640001012],[None],5,1.6804831000044942,,,,,0,4,4,33,1669.3517438999843,,24,Male,Right handed,Corrected to normal,,,,,,,,,,,,,,,,,,,,,,,,,,,,,,,,,,,,,,,,1669.3417045999959,1669.3517438999843,1669.3517438999843,1669.3517438999843,1669.3517438999843,1669.3517438999843,1669.3517438999843,1673.8519021999964,['r'],1,[4.49404640001012],[None],1673.8535289999854,1673.8803665000014,1673.8803665000014,1673.8803665000014,1675.548906799988,5,1.6804831000044942,5,1.6804831000044942,,,,,,,,sub84_NB,001,2026-01-28_22h42.26.016,recognitionstage,,2025.1.1,59.95710669080901,2026-01-28 22h43.35.223230 +0530,
,,,5,5,0,7,frames\Vid7_EM_T.png,frames\Vid7_L.png,['l'],1,[4.686107599991374],[None],5,1.3815016000007745,,,,,0,5,5,6,1675.6157432999753,,24,Male,Right handed,Corrected to normal,,,,,,,,,,,,,,,,,,,,,,,,,,,,,,,,,,,,,,,,1675.603895599983,1675.6157432999753,1675.6157432999753,1675.6157432999753,1675.6157432999753,1675.6157432999753,1675.6157432999753,1680.317457600002,['l'],1,[4.686107599991374],[None],1680.3187686999736,1680.33248859999,1680.33248859999,1680.33248859999,1681.715752499993,5,1.3815016000007745,5,1.3815016000007745,,,,,,,,sub84_NB,001,2026-01-28_22h42.26.016,recognitionstage,,2025.1.1,59.95710669080901,2026-01-28 22h43.35.223230 +0530,
,,,6,6,0,30,frames\Vid30_EM_T.png,frames\Vid30_L.png,['l'],1,[7.126573100016685],[None],4,0.9988341999996919,,,,,0,6,6,29,1681.7509809999901,,24,Male,Right handed,Corrected to normal,,,,,,,,,,,,,,,,,,,,,,,,,,,,,,,,,,,,,,,,1681.7424943999795,1681.7509809999901,1681.7509809999901,1681.7509809999901,1681.7509809999901,1681.7509809999901,1681.7509809999901,1688.8832705999957,['l'],1,[7.126573100016685],[None],1688.8842616999755,1688.898998699995,1688.898998699995,1688.898998699995,1689.9001960000023,4,0.9988341999996919,4,0.9988341999996919,,,,,,,,sub84_NB,001,2026-01-28_22h42.26.016,recognitionstage,,2025.1.1,59.95710669080901,2026-01-28 22h43.35.223230 +0530,
,,,7,7,0,4,frames\Vid4_EM_T.png,frames\Vid4_L.png,['r'],0,[8.60701129998779],[None],4,2.481067399989115,,,,,0,7,7,3,1689.9826123999956,,24,Male,Right handed,Corrected to normal,,,,,,,,,,,,,,,,,,,,,,,,,,,,,,,,,,,,,,,,1689.9597022999951,1689.9826123999956,1689.9826123999956,1689.9826123999956,1689.9826123999956,1689.9826123999956,1689.9826123999956,1698.6012199999823,['r'],0,[8.60701129998779],[None],1698.6022196999984,1698.6152351999772,1698.6152351999772,1698.6152351999772,1701.1001402999973,4,2.481067399989115,4,2.481067399989115,,,,,,,,sub84_NB,001,2026-01-28_22h42.26.016,recognitionstage,,2025.1.1,59.95710669080901,2026-01-28 22h43.35.223230 +0530,
,,,8,8,0,24,frames\Vid24_BB_T.png,frames\Vid24_L.png,['r'],1,[6.942173699993873],[None],3,2.3298760000034235,,,,,0,8,8,23,1701.151602500002,,24,Male,Right handed,Corrected to normal,,,,,,,,,,,,,,,,,,,,,,,,,,,,,,,,,,,,,,,,1701.1286143999896,1701.151602500002,1701.151602500002,1701.151602500002,1701.151602500002,1701.151602500002,1701.151602500002,1708.101870899991,['r'],1,[6.942173699993873],[None],1708.1029510999797,1708.1151630999811,1708.1151630999811,1708.1151630999811,1710.4488112999825,3,2.3298760000034235,3,2.3298760000034235,,,,,,,,sub84_NB,001,2026-01-28_22h42.26.016,recognitionstage,,2025.1.1,59.95710669080901,2026-01-28 22h43.35.223230 +0530,
,,,9,9,0,35,frames\Vid35_EM_T.png,frames\Vid35_L.png,['l'],0,[5.380045400001109],[None],2,1.3811984999920242,,,,,0,9,9,34,1710.4816569999966,,24,Male,Right handed,Corrected to normal,,,,,,,,,,,,,,,,,,,,,,,,,,,,,,,,,,,,,,,,1710.469131699996,1710.4816569999966,1710.4816569999966,1710.4816569999966,1710.4816569999966,1710.4816569999966,1710.4816569999966,1715.8673576999863,['l'],0,[5.380045400001109],[None],1715.868247299979,1715.8817292999884,1715.8817292999884,1715.8817292999884,1717.2661310999829,2,1.3811984999920242,2,1.3811984999920242,,,,,,,,sub84_NB,001,2026-01-28_22h42.26.016,recognitionstage,,2025.1.1,59.95710669080901,2026-01-28 22h43.35.223230 +0530,
,,,10,10,0,22,frames\Vid22_EM_T.png,frames\Vid22_L.png,['r'],1,[5.763275400007842],[None],5,2.1991465999744833,,,,,0,10,10,21,1717.298318199988,,24,Male,Right handed,Corrected to normal,,,,,,,,,,,,,,,,,,,,,,,,,,,,,,,,,,,,,,,,1717.2926075999858,1717.298318199988,1717.298318199988,1717.298318199988,1717.298318199988,1717.298318199988,1717.298318199988,1723.0664815999917,['r'],1,[5.763275400007842],[None],1723.0672321999737,1723.0822633999924,1723.0822633999924,1723.0822633999924,1725.2834776999953,5,2.1991465999744833,5,2.1991465999744833,,,,,,,,sub84_NB,001,2026-01-28_22h42.26.016,recognitionstage,,2025.1.1,59.95710669080901,2026-01-28 22h43.35.223230 +0530,
,,,11,11,0,33,frames\Vid33_BB_T.png,frames\Vid33_L.png,['r'],0,[6.6334938000072725],[None],5,1.4301375000213739,,,,,0,11,11,32,1725.3322242999857,,24,Male,Right handed,Corrected to normal,,,,,,,,,,,,,,,,,,,,,,,,,,,,,,,,,,,,,,,,1725.3110325000016,1725.3322242999857,1725.3322242999857,1725.3322242999857,1725.3322242999857,1725.3322242999857,1725.3322242999857,1731.9679443999776,['r'],0,[6.6334938000072725],[None],1731.969299599994,1731.9820588000002,1731.9820588000002,1731.9820588000002,1733.416625599988,5,1.4301375000213739,5,1.4301375000213739,,,,,,,,sub84_NB,001,2026-01-28_22h42.26.016,recognitionstage,,2025.1.1,59.95710669080901,2026-01-28 22h43.35.223230 +0530,
,,,12,12,0,38,frames\Vid38_EM_T.png,frames\Vid38_L.png,['l'],1,[3.8850966000172775],[None],5,1.6807504000025801,,,,,0,12,12,37,1733.4485514999833,,24,Male,Right handed,Corrected to normal,,,,,,,,,,,,,,,,,,,,,,,,,,,,,,,,,,,,,,,,1733.4413304999762,1733.4485514999833,1733.4485514999833,1733.4485514999833,1733.4485514999833,1733.4485514999833,1733.4485514999833,1737.3344122999988,['l'],1,[3.8850966000172775],[None],1737.3353027999983,1737.3482629999926,1737.3482629999926,1737.3482629999926,1739.0331248999864,5,1.6807504000025801,5,1.6807504000025801,,,,,,,,sub84_NB,001,2026-01-28_22h42.26.016,recognitionstage,,2025.1.1,59.95710669080901,2026-01-28 22h43.35.223230 +0530,
,,,13,13,0,40,frames\Vid40_EM_T.png,frames\Vid40_L.png,['r'],1,[5.628595799993491],[None],5,1.4318305999913719,,,,,0,13,13,39,1739.0651096999936,,24,Male,Right handed,Corrected to normal,,,,,,,,,,,,,,,,,,,,,,,,,,,,,,,,,,,,,,,,1739.05532449999,1739.0651096999936,1739.0651096999936,1739.0651096999936,1739.0651096999936,1739.0651096999936,1739.0651096999936,1744.7000803999836,['r'],1,[5.628595799993491],[None],1744.7009821999818,1744.7152713999967,1744.7152713999967,1744.7152713999967,1746.1501136999868,5,1.4318305999913719,5,1.4318305999913719,,,,,,,,sub84_NB,001,2026-01-28_22h42.26.016,recognitionstage,,2025.1.1,59.95710669080901,2026-01-28 22h43.35.223230 +0530,
,,,14,14,0,32,frames\Vid32_EM_T.png,frames\Vid32_L.png,['r'],1,[3.823811200010823],[None],5,3.1651987000077497,,,,,0,14,14,31,1746.181823699997,,24,Male,Right handed,Corrected to normal,,,,,,,,,,,,,,,,,,,,,,,,,,,,,,,,,,,,,,,,1746.1757548000023,1746.181823699997,1746.181823699997,1746.181823699997,1746.181823699997,1746.181823699997,1746.181823699997,1750.016710099997,['r'],1,[3.823811200010823],[None],1750.0175578999915,1750.0319572000008,1750.0319572000008,1750.0319572000008,1753.1999337000016,5,3.1651987000077497,5,3.1651987000077497,,,,,,,,sub84_NB,001,2026-01-28_22h42.26.016,recognitionstage,,2025.1.1,59.95710669080901,2026-01-28 22h43.35.223230 +0530,
,,,15,15,0,26,frames\Vid26_EM_T.png,frames\Vid26_L.png,['r'],1,[5.252697899995837],[None],5,1.7994589999725576,,,,,0,15,15,25,1753.2488581999787,,24,Male,Right handed,Corrected to normal,,,,,,,,,,,,,,,,,,,,,,,,,,,,,,,,,,,,,,,,1753.228941599984,1753.2488581999787,1753.2488581999787,1753.2488581999787,1753.2488581999787,1753.2488581999787,1753.2488581999787,1758.5164320999756,['r'],1,[5.252697899995837],[None],1758.5172456,1758.5321399999957,1758.5321399999957,1758.5321399999957,1760.3330597999739,5,1.7994589999725576,5,1.7994589999725576,,,,,,,,sub84_NB,001,2026-01-28_22h42.26.016,recognitionstage,,2025.1.1,59.95710669080901,2026-01-28 22h43.35.223230 +0530,
,,,16,16,0,29,frames\Vid29_BB_T.png,frames\Vid29_L.png,['r'],1,[5.216283599991584],[None],5,0.997425999987172,,,,,0,16,16,28,1760.3654419999802,,24,Male,Right handed,Corrected to normal,,,,,,,,,,,,,,,,,,,,,,,,,,,,,,,,,,,,,,,,1760.3588784000021,1760.3654419999802,1760.3654419999802,1760.3654419999802,1760.3654419999802,1760.3654419999802,1760.3654419999802,1765.5847081999818,['r'],1,[5.216283599991584],[None],1765.5859372999985,1765.5984023999772,1765.5984023999772,1765.5984023999772,1766.599404699984,5,0.997425999987172,5,0.997425999987172,,,,,,,,sub84_NB,001,2026-01-28_22h42.26.016,recognitionstage,,2025.1.1,59.95710669080901,2026-01-28 22h43.35.223230 +0530,
,,,17,17,0,2,frames\Vid2_BB_T.png,frames\Vid2_L.png,['l'],1,[3.979671999986749],[None],4,1.7481543000030797,,,,,0,17,17,1,1766.666004300001,,24,Male,Right handed,Corrected to normal,,,,,,,,,,,,,,,,,,,,,,,,,,,,,,,,,,,,,,,,1766.6502332999953,1766.666004300001,1766.666004300001,1766.666004300001,1766.666004300001,1766.666004300001,1766.666004300001,1770.6508128999849,['l'],1,[3.979671999986749],[None],1770.6516070999787,1770.664970199985,1770.664970199985,1770.664970199985,1772.4161289999902,4,1.7481543000030797,4,1.7481543000030797,,,,,,,,sub84_NB,001,2026-01-28_22h42.26.016,recognitionstage,,2025.1.1,59.95710669080901,2026-01-28 22h43.35.223230 +0530,
,,,18,18,0,16,frames\Vid16_EM_T.png,frames\Vid16_L.png,['l'],1,[4.448102599999402],[None],3,2.7805885999987368,,,,,0,18,18,15,1772.485564099974,,24,Male,Right handed,Corrected to normal,,,,,,,,,,,,,,,,,,,,,,,,,,,,,,,,,,,,,,,,1772.468828699988,1772.485564099974,1772.485564099974,1772.485564099974,1772.485564099974,1772.485564099974,1772.485564099974,1776.9349798999901,['l'],1,[4.448102599999402],[None],1776.9359855999937,1776.9486823999905,1776.9486823999905,1776.9486823999905,1779.7331484000024,3,2.7805885999987368,3,2.7805885999987368,,,,,,,,sub84_NB,001,2026-01-28_22h42.26.016,recognitionstage,,2025.1.1,59.95710669080901,2026-01-28 22h43.35.223230 +0530,
,,,19,19,0,11,frames\Vid11_EM_T.png,frames\Vid11_L.png,['r'],1,[3.0520602999895345],[None],3,0.9977356000163127,,,,,0,19,19,10,1779.8014613999985,,24,Male,Right handed,Corrected to normal,,,,,,,,,,,,,,,,,,,,,,,,,,,,,,,,,,,,,,,,1779.789193399978,1779.8014613999985,1779.8014613999985,1779.8014613999985,1779.8014613999985,1779.8014613999985,1779.8014613999985,1782.8671892999846,['r'],1,[3.0520602999895345],[None],1782.8684562999988,1782.882065999991,1782.882065999991,1782.882065999991,1783.8833337999822,3,0.9977356000163127,3,0.9977356000163127,,,,,,,,sub84_NB,001,2026-01-28_22h42.26.016,recognitionstage,,2025.1.1,59.95710669080901,2026-01-28 22h43.35.223230 +0530,
,,,20,20,0,1,frames\Vid1_EM_T.png,frames\Vid1_L.png,['l'],1,[5.309405700012576],[None],4,3.0660827000101563,,,,,0,20,20,0,1783.968234,,24,Male,Right handed,Corrected to normal,,,,,,,,,,,,,,,,,,,,,,,,,,,,,,,,,,,,,,,,1783.9430537000007,1783.968234,1783.968234,1783.968234,1783.968234,1783.968234,1783.968234,1789.2832482999947,['l'],1,[5.309405700012576],[None],1789.284222999995,1789.2983875999926,1789.2983875999926,1789.2983875999926,1792.3660218000005,4,3.0660827000101563,4,3.0660827000101563,,,,,,,,sub84_NB,001,2026-01-28_22h42.26.016,recognitionstage,,2025.1.1,59.95710669080901,2026-01-28 22h43.35.223230 +0530,
,,,21,21,0,12,frames\Vid12_EM_T.png,frames\Vid12_L.png,['r'],1,[4.577329299994744],[None],5,1.4324200000264682,,,,,0,21,21,11,1792.4523673999938,,24,Male,Right handed,Corrected to normal,,,,,,,,,,,,,,,,,,,,,,,,,,,,,,,,,,,,,,,,1792.4265060999896,1792.4523673999938,1792.4523673999938,1792.4523673999938,1792.4523673999938,1792.4523673999938,1792.4523673999938,1797.0345896999934,['r'],1,[4.577329299994744],[None],1797.0355289999861,1797.0486237999867,1797.0486237999867,1797.0486237999867,1798.4824433999893,5,1.4324200000264682,5,1.4324200000264682,,,,,,,,sub84_NB,001,2026-01-28_22h42.26.016,recognitionstage,,2025.1.1,59.95710669080901,2026-01-28 22h43.35.223230 +0530,
,,,22,22,0,23,frames\Vid23_EM_T.png,frames\Vid23_L.png,['r'],1,[4.798886400007177],[None],5,0.8650537999928929,,,,,0,22,22,22,1798.534940099984,,24,Male,Right handed,Corrected to normal,,,,,,,,,,,,,,,,,,,,,,,,,,,,,,,,,,,,,,,,1798.5115142999857,1798.534940099984,1798.534940099984,1798.534940099984,1798.534940099984,1798.534940099984,1798.534940099984,1803.3507651999826,['r'],1,[4.798886400007177],[None],1803.351563299977,1803.3654348999844,1803.3654348999844,1803.3654348999844,1804.2323606999998,5,0.8650537999928929,5,0.8650537999928929,,,,,,,,sub84_NB,001,2026-01-28_22h42.26.016,recognitionstage,,2025.1.1,59.95710669080901,2026-01-28 22h43.35.223230 +0530,
,,,23,23,0,21,frames\Vid21_BB_T.png,frames\Vid21_L.png,['r'],1,[4.580704699998023],[None],5,0.7635963000066113,,,,,0,23,23,20,1804.2651949999854,,24,Male,Right handed,Corrected to normal,,,,,,,,,,,,,,,,,,,,,,,,,,,,,,,,,,,,,,,,1804.2595508999948,1804.2651949999854,1804.2651949999854,1804.2651949999854,1804.2651949999854,1804.2651949999854,1804.2651949999854,1808.8523446999898,['r'],1,[4.580704699998023],[None],1808.8528517999803,1808.8650538999937,1808.8650538999937,1808.8650538999937,1809.6329358999792,5,0.7635963000066113,5,0.7635963000066113,,,,,,,,sub84_NB,001,2026-01-28_22h42.26.016,recognitionstage,,2025.1.1,59.95710669080901,2026-01-28 22h43.35.223230 +0530,
,,,24,24,0,36,frames\Vid36_BB_T.png,frames\Vid36_L.png,['r'],1,[1.8679045000171755],[None],5,0.7825657000066712,,,,,0,24,24,35,1809.6818090000015,,24,Male,Right handed,Corrected to normal,,,,,,,,,,,,,,,,,,,,,,,,,,,,,,,,,,,,,,,,1809.6596542999905,1809.6818090000015,1809.6818090000015,1809.6818090000015,1809.6818090000015,1809.6818090000015,1809.6818090000015,1811.5503641999967,['r'],1,[1.8679045000171755],[None],1811.5511956999835,1811.565327599994,1811.565327599994,1811.565327599994,1812.3490002999897,5,0.7825657000066712,5,0.7825657000066712,,,,,,,,sub84_NB,001,2026-01-28_22h42.26.016,recognitionstage,,2025.1.1,59.95710669080901,2026-01-28 22h43.35.223230 +0530,
,,,25,25,0,18,frames\Vid18_EM_T.png,frames\Vid18_L.png,['l'],0,[3.9516078000015114],[None],3,2.031052699981956,,,,,0,25,25,17,1812.3821533999871,,24,Male,Right handed,Corrected to normal,,,,,,,,,,,,,,,,,,,,,,,,,,,,,,,,,,,,,,,,1812.373646699998,1812.3821533999871,1812.3821533999871,1812.3821533999871,1812.3821533999871,1812.3821533999871,1812.3821533999871,1816.3347639999993,['l'],0,[3.9516078000015114],[None],1816.3359563999984,1816.348708399979,1816.348708399979,1816.348708399979,1818.3824191999738,3,2.031052699981956,3,2.031052699981956,,,,,,,,sub84_NB,001,2026-01-28_22h42.26.016,recognitionstage,,2025.1.1,59.95710669080901,2026-01-28 22h43.35.223230 +0530,
,,,26,26,0,19,frames\Vid19_BB_T.png,frames\Vid19_L.png,['r'],0,[5.462477199995192],[None],1,1.0158568999904674,,,,,0,26,26,18,1818.4153645999904,,24,Male,Right handed,Corrected to normal,,,,,,,,,,,,,,,,,,,,,,,,,,,,,,,,,,,,,,,,1818.4079932000022,1818.4153645999904,1818.4153645999904,1818.4153645999904,1818.4153645999904,1818.4153645999904,1818.4153645999904,1823.8839405999752,['r'],0,[5.462477199995192],[None],1823.8849025999953,1823.898885499977,1823.898885499977,1823.898885499977,1824.9159201000002,1,1.0158568999904674,1,1.0158568999904674,,,,,,,,sub84_NB,001,2026-01-28_22h42.26.016,recognitionstage,,2025.1.1,59.95710669080901,2026-01-28 22h43.35.223230 +0530,
,,,27,27,0,37,frames\Vid37_BB_T.png,frames\Vid37_L.png,['l'],1,[2.7207385000074282],[None],5,1.6814120000053663,,,,,0,27,27,36,1824.9488273999887,,24,Male,Right handed,Corrected to normal,,,,,,,,,,,,,,,,,,,,,,,,,,,,,,,,,,,,,,,,1824.9427755999786,1824.9488273999887,1824.9488273999887,1824.9488273999887,1824.9488273999887,1824.9488273999887,1824.9488273999887,1827.6845387999783,['l'],1,[2.7207385000074282],[None],1827.6857327999896,1827.6989228999882,1827.6989228999882,1827.6989228999882,1829.382821199979,5,1.6814120000053663,5,1.6814120000053663,,,,,,,,sub84_NB,001,2026-01-28_22h42.26.016,recognitionstage,,2025.1.1,59.95710669080901,2026-01-28 22h43.35.223230 +0530,
,,,28,28,0,25,frames\Vid25_BB_T.png,frames\Vid25_L.png,['l'],1,[6.238086099998327],[None],4,1.880474800011143,,,,,0,28,28,24,1829.415515599976,,24,Male,Right handed,Corrected to normal,,,,,,,,,,,,,,,,,,,,,,,,,,,,,,,,,,,,,,,,1829.4075500999752,1829.415515599976,1829.415515599976,1829.415515599976,1829.415515599976,1829.415515599976,1829.415515599976,1835.6677328999795,['l'],1,[6.238086099998327],[None],1835.6689356999996,1835.6817402000015,1835.6817402000015,1835.6817402000015,1837.5662195999757,4,1.880474800011143,4,1.880474800011143,,,,,,,,sub84_NB,001,2026-01-28_22h42.26.016,recognitionstage,,2025.1.1,59.95710669080901,2026-01-28 22h43.35.223230 +0530,
,,,29,29,0,31,frames\Vid31_EM_T.png,frames\Vid31_L.png,['r'],1,[2.791147300013108],[None],5,0.848775000020396,,,,,0,29,29,30,1837.5984645999852,,24,Male,Right handed,Corrected to normal,,,,,,,,,,,,,,,,,,,,,,,,,,,,,,,,,,,,,,,,1837.5878221999737,1837.5984645999852,1837.5984645999852,1837.5984645999852,1837.5984645999852,1837.5984645999852,1837.5984645999852,1840.4001352999767,['r'],1,[2.791147300013108],[None],1840.4011056000018,1840.4154041000002,1840.4154041000002,1840.4154041000002,1841.2656407999748,5,0.848775000020396,5,0.848775000020396,,,,,,,,sub84_NB,001,2026-01-28_22h42.26.016,recognitionstage,,2025.1.1,59.95710669080901,2026-01-28 22h43.35.223230 +0530,
,,,30,30,0,9,frames\Vid9_EM_T.png,frames\Vid9_L.png,['r'],1,[4.145286699989811],[None],5,1.3972659999853931,,,,,0,30,30,8,1841.3324416999822,,24,Male,Right handed,Corrected to normal,,,,,,,,,,,,,,,,,,,,,,,,,,,,,,,,,,,,,,,,1841.31532959998,1841.3324416999822,1841.3324416999822,1841.3324416999822,1841.3324416999822,1841.3324416999822,1841.3324416999822,1845.4846703999792,['r'],1,[4.145286699989811],[None],1845.4861835999764,1845.5133285999764,1845.5133285999764,1845.5133285999764,1846.898936099984,5,1.3972659999853931,5,1.3972659999853931,,,,,,,,sub84_NB,001,2026-01-28_22h42.26.016,recognitionstage,,2025.1.1,59.95710669080901,2026-01-28 22h43.35.223230 +0530,
,,,31,31,0,10,frames\Vid10_BB_T.png,frames\Vid10_L.png,['l'],1,[2.7812777000071947],[None],5,1.0135014000115916,,,,,0,31,31,9,1846.968407599983,,24,Male,Right handed,Corrected to normal,,,,,,,,,,,,,,,,,,,,,,,,,,,,,,,,,,,,,,,,1846.953271699982,1846.968407599983,1846.968407599983,1846.968407599983,1846.968407599983,1846.968407599983,1846.968407599983,1849.7513499999768,['l'],1,[2.7812777000071947],[None],1849.7525988999987,1849.7649948999751,1849.7649948999751,1849.7649948999751,1850.7826457999763,5,1.0135014000115916,5,1.0135014000115916,,,,,,,,sub84_NB,001,2026-01-28_22h42.26.016,recognitionstage,,2025.1.1,59.95710669080901,2026-01-28 22h43.35.223230 +0530,
,,,32,32,0,20,frames\Vid20_EM_T.png,frames\Vid20_L.png,['l'],1,[2.4995699000137392],[None],5,0.9969430000055581,,,,,0,32,32,19,1850.8180558999884,,24,Male,Right handed,Corrected to normal,,,,,,,,,,,,,,,,,,,,,,,,,,,,,,,,,,,,,,,,1850.8003350999788,1850.8180558999884,1850.8180558999884,1850.8180558999884,1850.8180558999884,1850.8180558999884,1850.8180558999884,1853.3349861000024,['l'],1,[2.4995699000137392],[None],1853.3359416000021,1853.3482068000012,1853.3482068000012,1853.3482068000012,1854.3494748999947,5,0.9969430000055581,5,0.9969430000055581,,,,,,,,sub84_NB,001,2026-01-28_22h42.26.016,recognitionstage,,2025.1.1,59.95710669080901,2026-01-28 22h43.35.223230 +0530,
,,,33,33,0,3,frames\Vid3_BB_T.png,frames\Vid3_L.png,['l'],1,[2.5424369999964256],[None],4,1.2142154000175651,,,,,0,33,33,2,1854.4152373999823,,24,Male,Right handed,Corrected to normal,,,,,,,,,,,,,,,,,,,,,,,,,,,,,,,,,,,,,,,,1854.4051368999935,1854.4152373999823,1854.4152373999823,1854.4152373999823,1854.4152373999823,1854.4152373999823,1854.4152373999823,1856.9675283999823,['l'],1,[2.5424369999964256],[None],1856.9684787000006,1856.9816885999753,1856.9816885999753,1856.9816885999753,1858.199270299985,4,1.2142154000175651,4,1.2142154000175651,,,,,,,,sub84_NB,001,2026-01-28_22h42.26.016,recognitionstage,,2025.1.1,59.95710669080901,2026-01-28 22h43.35.223230 +0530,
,,,34,34,0,14,frames\Vid14_BB_T.png,frames\Vid14_L.png,['l'],1,[3.7531495000002906],[None],5,1.2314989999867976,,,,,0,34,34,13,1858.2684239999799,,24,Male,Right handed,Corrected to normal,,,,,,,,,,,,,,,,,,,,,,,,,,,,,,,,,,,,,,,,1858.2560713999846,1858.2684239999799,1858.2684239999799,1858.2684239999799,1858.2684239999799,1858.2684239999799,1858.2684239999799,1862.033796099975,['l'],1,[3.7531495000002906],[None],1862.034713799978,1862.0487509999948,1862.0487509999948,1862.0487509999948,1863.2828749999753,5,1.2314989999867976,5,1.2314989999867976,,,,,,,,sub84_NB,001,2026-01-28_22h42.26.016,recognitionstage,,2025.1.1,59.95710669080901,2026-01-28 22h43.35.223230 +0530,
,,,35,35,0,27,frames\Vid27_BB_T.png,frames\Vid27_L.png,['r'],1,[6.152102399995783],[None],5,0.9970487999962643,,,,,0,35,35,26,1863.3177956999862,,24,Male,Right handed,Corrected to normal,,,,,,,,,,,,,,,,,,,,,,,,,,,,,,,,,,,,,,,,1863.3069458999962,1863.3177956999862,1863.3177956999862,1863.3177956999862,1863.3177956999862,1863.3177956999862,1863.3177956999862,1869.4842661999865,['r'],1,[6.152102399995783],[None],1869.485523899988,1869.4988216999918,1869.4988216999918,1869.4988216999918,1870.4992686999904,5,0.9970487999962643,5,0.9970487999962643,,,,,,,,sub84_NB,001,2026-01-28_22h42.26.016,recognitionstage,,2025.1.1,59.95710669080901,2026-01-28 22h43.35.223230 +0530,
,,,36,36,0,8,frames\Vid8_BB_T.png,frames\Vid8_L.png,['r'],1,[5.599378400016576],[None],2,0.9810059000155888,,,,,0,36,36,7,1870.5663290999946,,24,Male,Right handed,Corrected to normal,,,,,,,,,,,,,,,,,,,,,,,,,,,,,,,,,,,,,,,,1870.5482779000013,1870.5663290999946,1870.5663290999946,1870.5663290999946,1870.5663290999946,1870.5663290999946,1870.5663290999946,1876.167846299999,['r'],1,[5.599378400016576],[None],1876.1688693999895,1876.1820399999851,1876.1820399999851,1876.1820399999851,1877.1657965999912,2,0.9810059000155888,2,0.9810059000155888,,,,,,,,sub84_NB,001,2026-01-28_22h42.26.016,recognitionstage,,2025.1.1,59.95710669080901,2026-01-28 22h43.35.223230 +0530,
,,,37,37,0,28,frames\Vid28_EM_T.png,frames\Vid28_L.png,['l'],1,[5.524274199997308],[None],5,1.9316587999928743,,,,,0,37,37,27,1877.2013126999955,,24,Male,Right handed,Corrected to normal,,,,,,,,,,,,,,,,,,,,,,,,,,,,,,,,,,,,,,,,1877.190369399992,1877.2013126999955,1877.2013126999955,1877.2013126999955,1877.2013126999955,1877.2013126999955,1877.2013126999955,1882.7333885999979,['l'],1,[5.524274199997308],[None],1882.7342712999962,1882.7487833999912,1882.7487833999912,1882.7487833999912,1884.6826834999956,5,1.9316587999928743,5,1.9316587999928743,,,,,,,,sub84_NB,001,2026-01-28_22h42.26.016,recognitionstage,,2025.1.1,59.95710669080901,2026-01-28 22h43.35.223230 +0530,
,,,38,38,0,15,frames\Vid15_BB_T.png,frames\Vid15_L.png,['l'],1,[2.5685651999956463],[None],5,1.1328902000095695,,,,,0,38,38,14,1884.7490397999936,,24,Male,Right handed,Corrected to normal,,,,,,,,,,,,,,,,,,,,,,,,,,,,,,,,,,,,,,,,1884.7428102999984,1884.7490397999936,1884.7490397999936,1884.7490397999936,1884.7490397999936,1884.7490397999936,1884.7490397999936,1887.333452699997,['l'],1,[2.5685651999956463],[None],1887.3341574999795,1887.3486033999943,1887.3486033999943,1887.3486033999943,1888.4823367999925,5,1.1328902000095695,5,1.1328902000095695,,,,,,,,sub84_NB,001,2026-01-28_22h42.26.016,recognitionstage,,2025.1.1,59.95710669080901,2026-01-28 22h43.35.223230 +0530,
,,,39,39,0,17,frames\Vid17_BB_T.png,frames\Vid17_L.png,['l'],1,[3.71062699999311],[None],5,1.3470604000031017,,,,,0,39,39,16,1888.5351208999928,,24,Male,Right handed,Corrected to normal,,,,,,,,,,,,,,,,,,,,,,,,,,,,,,,,,,,,,,,,1888.5190308999736,1888.5351208999928,1888.5351208999928,1888.5351208999928,1888.5351208999928,1888.5351208999928,1888.5351208999928,1892.251840299985,['l'],1,[3.71062699999311],[None],1892.2528504999937,1892.2650366000016,1892.2650366000016,1892.2650366000016,1893.6164287999854,5,1.3470604000031017,5,1.3470604000031017,,,,,,,,sub84_NB,001,2026-01-28_22h42.26.016,recognitionstage,,2025.1.1,59.95710669080901,2026-01-28 22h43.35.223230 +0530,
,,,,,,,,,,,,,,,,,,,,,,,,,24,Male,Right handed,Corrected to normal,,,,,,,,,,,,,,,,,,,,,,,,,,,,,,,,,,,,,,,,,,,,,,,,,,,,,,,,,,,,,1893.6165508999838,1893.6321438000014,1893.6321438000014,1896.6001576999843,space,2.9655893000017386,None,sub84_NB,001,2026-01-28_22h42.26.016,recognitionstage,,2025.1.1,59.95710669080901,2026-01-28 22h43.35.223230 +0530,
