path,duration,is_repeat,thisN,thisTrialN,thisRepN,movie_id,target_img,lure_img,resp.keys,resp.corr,resp.rt,resp.duration,conf_radio.response,conf_radio.rt,movie.thisRepN,movie.thisTrialN,movie.thisN,movie.thisIndex,recogloop.thisRepN,recogloop.thisTrialN,recogloop.thisN,recogloop.thisIndex,thisRow.t,notes,age,gender,handedness,vision,caffeine_2h,alcohol_smoke_12h,demographics.started,demographics.stopped,Instructions.started,text1.started,key_resp.started,Instructions.stopped,key_resp.keys,key_resp.rt,key_resp.duration,instruction_2.started,text2.started,key_resp_2.started,instruction_2.stopped,key_resp_2.keys,key_resp_2.rt,key_resp_2.duration,Videos.started,movie_2.started,vigilance_resp.started,movie_2.stopped,Videos.stopped,movie.vigilance_resp.keys,vigilance_pressed,vigilance_correct,ISI.started,text.started,ISI.stopped,movie.vigilance_resp.rt,movie.vigilance_resp.duration,text.stopped,recognition.started,text_4.started,key_resp_3.started,recognition.stopped,key_resp_3.keys,key_resp_3.rt,key_resp_3.duration,recognition_task.started,leftimage.started,rightimage.started,resp.started,frames_question.started,right_label.started,left_label.started,recognition_task.stopped,recogloop.resp.keys,recogloop.resp.corr,recogloop.resp.rt,recogloop.resp.duration,confidence.started,conf_text.started,conf_radio.started,conf_label.started,confidence.stopped,recogloop.conf_radio.response,recogloop.conf_radio.rt,confidence,confidence_rt,thank_you.started,text_6.started,key_resp_4.started,text_6.stopped,key_resp_4.stopped,thank_you.stopped,key_resp_4.keys,participant,session,date,expName,expVersion,psychopyVersion,frameRate,expStart,...105
,,,,,,,,,,,,,,,,,,,,,,,,,22,Male,Right handed,Normal,Caffeine consumed in last 2 hours?,Alcohol or smoking in last 12 hours?,0.01054459999431856,0.012955000012880191,,,,,,,,,,,,,,,,,,,,,,,,,,,,,,,,,,,,,,,,,,,,,,,,,,,,,,,,,,,,,,,,sub95_AB,001,2026-01-29_23h15.33.740,recognitionstage,,2025.1.1,60.051367939786175,2026-01-29 23h16.33.057630 +0530,
,,,,,,,,,,,,,,,,,,,,,,,,,22,Male,Right handed,Normal,,,,,0.012977000005776063,0.029694600001676008,0.029694600001676008,11.047357600007672,space,11.006549499987159,None,,,,,,,,,,,,,,,,,,,,,,,,,,,,,,,,,,,,,,,,,,,,,,,,,,,,,,,,,sub95_AB,001,2026-01-29_23h15.33.740,recognitionstage,,2025.1.1,60.051367939786175,2026-01-29 23h16.33.057630 +0530,
,,,,,,,,,,,,,,,,,,,,,,,,,22,Male,Right handed,Normal,,,,,,,,,,,,11.0474041000125,11.064758299995447,11.064758299995447,37.23090270001558,space,26.155527599999914,None,,,,,,,,,,,,,,,,,,,,,,,,,,,,,,,,,,,,,,,,,,,,,,,,,,sub95_AB,001,2026-01-29_23h15.33.740,recognitionstage,,2025.1.1,60.051367939786175,2026-01-29 23h16.33.057630 +0530,
abrupt_videos\abrupt_28.mp4,48,1,44,44,0,,,,,,,,,,0,44,44,31,,,,,1563.2957975000027,,22,Male,Right handed,Normal,,,,,,,,,,,,,,,,,,,1563.2533894999942,1563.2957975000027,1563.2957975000027,1560.0286973000038,1565.8979292000004,space,1,1,1566.0211732999887,1566.028812000004,1568.5149395999906,2.588663699978497,None,1568.5302529000037,1568.5150795000081,1568.5302529000037,1568.5302529000037,1609.3156345000025,space,40.778516799997305,None,,,,,,,,,,,,,,,,,,,,,,,,,,,,,sub95_AB,001,2026-01-29_23h15.33.740,recognitionstage,,2025.1.1,60.051367939786175,2026-01-29 23h16.33.057630 +0530,
,,,0,0,0,28,frames\Vid28_EM_T.png,frames\Vid28_L.png,['r'],1,[2.9158464999927673],[None],5,4.19964110001456,,,,,0,0,0,27,1609.3446028000035,,22,Male,Right handed,Normal,,,,,,,,,,,,,,,,,,,,,,,,,,,,,,,,,,,,,,,,1609.3332253000117,1609.3446028000035,1609.3446028000035,1609.3446028000035,1609.3446028000035,1609.3446028000035,1609.3446028000035,1612.2641960000037,['r'],1,[2.9158464999927673],[None],1612.2647963000054,1612.2792854,1612.2792854,1612.2792854,1616.4801587999973,5,4.19964110001456,5,4.19964110001456,,,,,,,,sub95_AB,001,2026-01-29_23h15.33.740,recognitionstage,,2025.1.1,60.051367939786175,2026-01-29 23h16.33.057630 +0530,
,,,1,1,0,4,frames\Vid4_EM_T.png,frames\Vid4_L.png,['r'],0,[13.28326090000337],[None],3,1.0977967999933753,,,,,0,1,1,3,1616.5452218000137,,22,Male,Right handed,Normal,,,,,,,,,,,,,,,,,,,,,,,,,,,,,,,,,,,,,,,,1616.5295380000025,1616.5452218000137,1616.5452218000137,1616.5452218000137,1616.5452218000137,1616.5452218000137,1616.5452218000137,1629.8323794000025,['r'],0,[13.28326090000337],[None],1629.8332130000053,1629.8459629999998,1629.8459629999998,1629.8459629999998,1630.947066599998,3,1.0977967999933753,3,1.0977967999933753,,,,,,,,sub95_AB,001,2026-01-29_23h15.33.740,recognitionstage,,2025.1.1,60.051367939786175,2026-01-29 23h16.33.057630 +0530,
,,,2,2,0,2,frames\Vid2_BB_T.png,frames\Vid2_L.png,['l'],0,[4.112569500022801],[None],4,1.431242699996801,,,,,0,2,2,1,1631.0119542999892,,22,Male,Right handed,Normal,,,,,,,,,,,,,,,,,,,,,,,,,,,,,,,,,,,,,,,,1630.997765600012,1631.0119542999892,1631.0119542999892,1631.0119542999892,1631.0119542999892,1631.0119542999892,1631.0119542999892,1635.1319043000112,['l'],0,[4.112569500022801],[None],1635.1329256999888,1635.1459380000015,1635.1459380000015,1635.1459380000015,1636.5805416000076,4,1.431242699996801,4,1.431242699996801,,,,,,,,sub95_AB,001,2026-01-29_23h15.33.740,recognitionstage,,2025.1.1,60.051367939786175,2026-01-29 23h16.33.057630 +0530,
,,,3,3,0,20,frames\Vid20_EM_T.png,frames\Vid20_L.png,['r'],0,[12.267224600014742],[None],5,0.8985412999754772,,,,,0,3,3,19,1636.6011826999893,,22,Male,Right handed,Normal,,,,,,,,,,,,,,,,,,,,,,,,,,,,,,,,,,,,,,,,1636.5876788000169,1636.6011826999893,1636.6011826999893,1636.6011826999893,1636.6011826999893,1636.6011826999893,1636.6011826999893,1648.881081200001,['r'],0,[12.267224600014742],[None],1648.8822017000057,1648.8965173999895,1648.8965173999895,1648.8965173999895,1649.7973033000017,5,0.8985412999754772,5,0.8985412999754772,,,,,,,,sub95_AB,001,2026-01-29_23h15.33.740,recognitionstage,,2025.1.1,60.051367939786175,2026-01-29 23h16.33.057630 +0530,
,,,4,4,0,15,frames\Vid15_BB_T.png,frames\Vid15_L.png,['l'],1,[3.453625699999975],[None],5,1.414555499999551,,,,,0,4,4,14,1649.862858700013,,22,Male,Right handed,Normal,,,,,,,,,,,,,,,,,,,,,,,,,,,,,,,,,,,,,,,,1649.8455415999924,1649.862858700013,1649.862858700013,1649.862858700013,1649.862858700013,1649.862858700013,1649.862858700013,1653.3320419999945,['l'],1,[3.453625699999975],[None],1653.3330773999915,1653.3464323999942,1653.3464323999942,1653.3464323999942,1654.7631888999895,5,1.414555499999551,5,1.414555499999551,,,,,,,,sub95_AB,001,2026-01-29_23h15.33.740,recognitionstage,,2025.1.1,60.051367939786175,2026-01-29 23h16.33.057630 +0530,
,,,5,5,0,17,frames\Vid17_BB_T.png,frames\Vid17_L.png,['r'],1,[3.27785800001584],[None],3,0.9469467999879271,,,,,0,5,5,16,1654.7988796000136,,22,Male,Right handed,Normal,,,,,,,,,,,,,,,,,,,,,,,,,,,,,,,,,,,,,,,,1654.787726999988,1654.7988796000136,1654.7988796000136,1654.7988796000136,1654.7988796000136,1654.7988796000136,1654.7988796000136,1658.0822961000085,['r'],1,[3.27785800001584],[None],1658.083308500005,1658.0959040000162,1658.0959040000162,1658.0959040000162,1659.047077700001,3,0.9469467999879271,3,0.9469467999879271,,,,,,,,sub95_AB,001,2026-01-29_23h15.33.740,recognitionstage,,2025.1.1,60.051367939786175,2026-01-29 23h16.33.057630 +0530,
,,,6,6,0,33,frames\Vid33_BB_T.png,frames\Vid33_L.png,['l'],0,[5.250625999993645],[None],4,1.881704900006298,,,,,0,6,6,32,1659.0658172999974,,22,Male,Right handed,Normal,,,,,,,,,,,,,,,,,,,,,,,,,,,,,,,,,,,,,,,,1659.0561278999958,1659.0658172999974,1659.0658172999974,1659.0658172999974,1659.0658172999974,1659.0658172999974,1659.0658172999974,1664.3312984000077,['l'],0,[5.250625999993645],[None],1664.332426500012,1664.3467526999884,1664.3467526999884,1664.3467526999884,1666.2300356999913,4,1.881704900006298,4,1.881704900006298,,,,,,,,sub95_AB,001,2026-01-29_23h15.33.740,recognitionstage,,2025.1.1,60.051367939786175,2026-01-29 23h16.33.057630 +0530,
,,,7,7,0,36,frames\Vid36_BB_T.png,frames\Vid36_L.png,['r'],1,[3.6861352999985684],[None],4,0.8470825000258628,,,,,0,7,7,35,1666.2625673000002,,22,Male,Right handed,Normal,,,,,,,,,,,,,,,,,,,,,,,,,,,,,,,,,,,,,,,,1666.2415416000003,1666.2625673000002,1666.2625673000002,1666.2625673000002,1666.2625673000002,1666.2625673000002,1666.2625673000002,1669.9495768999914,['r'],1,[3.6861352999985684],[None],1669.9509491999925,1669.9776181000052,1669.9776181000052,1669.9776181000052,1670.813293300016,4,0.8470825000258628,4,0.8470825000258628,,,,,,,,sub95_AB,001,2026-01-29_23h15.33.740,recognitionstage,,2025.1.1,60.051367939786175,2026-01-29 23h16.33.057630 +0530,
,,,8,8,0,21,frames\Vid21_BB_T.png,frames\Vid21_L.png,['l'],0,[7.046254199987743],[None],4,0.9125584000139497,,,,,0,8,8,20,1670.8463930000144,,22,Male,Right handed,Normal,,,,,,,,,,,,,,,,,,,,,,,,,,,,,,,,,,,,,,,,1670.824841900001,1670.8463930000144,1670.8463930000144,1670.8463930000144,1670.8463930000144,1670.8463930000144,1670.8463930000144,1677.900063100009,['l'],0,[7.046254199987743],[None],1677.90161239999,1677.927597300004,1677.927597300004,1677.927597300004,1678.829893599992,4,0.9125584000139497,4,0.9125584000139497,,,,,,,,sub95_AB,001,2026-01-29_23h15.33.740,recognitionstage,,2025.1.1,60.051367939786175,2026-01-29 23h16.33.057630 +0530,
,,,9,9,0,37,frames\Vid37_BB_T.png,frames\Vid37_L.png,['l'],1,[4.709876400011126],[None],4,1.6803858000203036,,,,,0,9,9,36,1678.8628025999933,,22,Male,Right handed,Normal,,,,,,,,,,,,,,,,,,,,,,,,,,,,,,,,,,,,,,,,1678.8424221000168,1678.8628025999933,1678.8628025999933,1678.8628025999933,1678.8628025999933,1678.8628025999933,1678.8628025999933,1683.582306700002,['l'],1,[4.709876400011126],[None],1683.5833464000025,1683.596067400009,1683.596067400009,1683.596067400009,1685.2804552000016,4,1.6803858000203036,4,1.6803858000203036,,,,,,,,sub95_AB,001,2026-01-29_23h15.33.740,recognitionstage,,2025.1.1,60.051367939786175,2026-01-29 23h16.33.057630 +0530,
,,,10,10,0,11,frames\Vid11_EM_T.png,frames\Vid11_L.png,['r'],1,[3.2586072999984026],[None],4,0.8823357000073884,,,,,0,10,10,10,1685.3298664999893,,22,Male,Right handed,Normal,,,,,,,,,,,,,,,,,,,,,,,,,,,,,,,,,,,,,,,,1685.3226249,1685.3298664999893,1685.3298664999893,1685.3298664999893,1685.3298664999893,1685.3298664999893,1685.3298664999893,1688.5977595000004,['r'],1,[3.2586072999984026],[None],1688.598724999989,1688.6131879999884,1688.6131879999884,1688.6131879999884,1689.4966911000083,4,0.8823357000073884,4,0.8823357000073884,,,,,,,,sub95_AB,001,2026-01-29_23h15.33.740,recognitionstage,,2025.1.1,60.051367939786175,2026-01-29 23h16.33.057630 +0530,
,,,11,11,0,35,frames\Vid35_EM_T.png,frames\Vid35_L.png,['l'],1,[3.3112015000078827],[None],4,0.9981434000073932,,,,,0,11,11,34,1689.5174264000088,,22,Male,Right handed,Normal,,,,,,,,,,,,,,,,,,,,,,,,,,,,,,,,,,,,,,,,1689.504305200011,1689.5174264000088,1689.5174264000088,1689.5174264000088,1689.5174264000088,1689.5174264000088,1689.5174264000088,1692.831946899998,['l'],1,[3.3112015000078827],[None],1692.8330136000004,1692.8465296000068,1692.8465296000068,1692.8465296000068,1693.8470717000018,4,0.9981434000073932,4,0.9981434000073932,,,,,,,,sub95_AB,001,2026-01-29_23h15.33.740,recognitionstage,,2025.1.1,60.051367939786175,2026-01-29 23h16.33.057630 +0530,
,,,12,12,0,19,frames\Vid19_BB_T.png,frames\Vid19_L.png,['r'],0,[4.99675589997787],[None],2,1.0142049999849405,,,,,0,12,12,18,1693.879833300016,,22,Male,Right handed,Normal,,,,,,,,,,,,,,,,,,,,,,,,,,,,,,,,,,,,,,,,1693.859774600016,1693.879833300016,1693.879833300016,1693.879833300016,1693.879833300016,1693.879833300016,1693.879833300016,1698.8822519000096,['r'],0,[4.99675589997787],[None],1698.883260100003,1698.8963465999987,1698.8963465999987,1698.8963465999987,1699.9134952000168,2,1.0142049999849405,2,1.0142049999849405,,,,,,,,sub95_AB,001,2026-01-29_23h15.33.740,recognitionstage,,2025.1.1,60.051367939786175,2026-01-29 23h16.33.057630 +0530,
,,,13,13,0,31,frames\Vid31_EM_T.png,frames\Vid31_L.png,['l'],1,[3.4887571000144817],[None],4,1.1985686999978498,,,,,0,13,13,30,1699.9318412000139,,22,Male,Right handed,Normal,,,,,,,,,,,,,,,,,,,,,,,,,,,,,,,,,,,,,,,,1699.9227837999933,1699.9318412000139,1699.9318412000139,1699.9318412000139,1699.9318412000139,1699.9318412000139,1699.9318412000139,1703.4319250000117,['l'],1,[3.4887571000144817],[None],1703.433007100015,1703.446337100002,1703.446337100002,1703.446337100002,1704.6468213000044,4,1.1985686999978498,4,1.1985686999978498,,,,,,,,sub95_AB,001,2026-01-29_23h15.33.740,recognitionstage,,2025.1.1,60.051367939786175,2026-01-29 23h16.33.057630 +0530,
,,,14,14,0,8,frames\Vid8_BB_T.png,frames\Vid8_L.png,['r'],0,[5.683751500007929],[None],4,1.0970586000184994,,,,,0,14,14,7,1704.6967831999937,,22,Male,Right handed,Normal,,,,,,,,,,,,,,,,,,,,,,,,,,,,,,,,,,,,,,,,1704.6851048000099,1704.6967831999937,1704.6967831999937,1704.6967831999937,1704.6967831999937,1704.6967831999937,1704.6967831999937,1710.382393900014,['r'],0,[5.683751500007929],[None],1710.383475300012,1710.3959081000066,1710.3959081000066,1710.3959081000066,1711.4965737000166,4,1.0970586000184994,4,1.0970586000184994,,,,,,,,sub95_AB,001,2026-01-29_23h15.33.740,recognitionstage,,2025.1.1,60.051367939786175,2026-01-29 23h16.33.057630 +0530,
,,,15,15,0,34,frames\Vid34_BB_T.png,frames\Vid34_L.png,['l'],1,[3.6787488000118174],[None],4,1.3821252000052482,,,,,0,15,15,33,1711.517798899993,,22,Male,Right handed,Normal,,,,,,,,,,,,,,,,,,,,,,,,,,,,,,,,,,,,,,,,1711.5064148000092,1711.517798899993,1711.517798899993,1711.517798899993,1711.517798899993,1711.517798899993,1711.517798899993,1715.197367100016,['l'],1,[3.6787488000118174],[None],1715.1980694000085,1715.2130965999968,1715.2130965999968,1715.2130965999968,1716.5969105999975,4,1.3821252000052482,4,1.3821252000052482,,,,,,,,sub95_AB,001,2026-01-29_23h15.33.740,recognitionstage,,2025.1.1,60.051367939786175,2026-01-29 23h16.33.057630 +0530,
,,,16,16,0,6,frames\Vid6_BB_T.png,frames\Vid6_L.png,['l'],1,[4.573968999990029],[None],4,1.314086500002304,,,,,0,16,16,5,1716.6465847000072,,22,Male,Right handed,Normal,,,,,,,,,,,,,,,,,,,,,,,,,,,,,,,,,,,,,,,,1716.6379640999949,1716.6465847000072,1716.6465847000072,1716.6465847000072,1716.6465847000072,1716.6465847000072,1716.6465847000072,1721.2318360999925,['l'],1,[4.573968999990029],[None],1721.2327554000076,1721.245929800003,1721.245929800003,1721.245929800003,1722.5634142000054,4,1.314086500002304,4,1.314086500002304,,,,,,,,sub95_AB,001,2026-01-29_23h15.33.740,recognitionstage,,2025.1.1,60.051367939786175,2026-01-29 23h16.33.057630 +0530,
,,,17,17,0,13,frames\Vid13_BB_T.png,frames\Vid13_L.png,['l'],1,[4.140123999997741],[None],4,0.5811756000039168,,,,,0,17,17,12,1722.6164433000085,,22,Male,Right handed,Normal,,,,,,,,,,,,,,,,,,,,,,,,,,,,,,,,,,,,,,,,1722.596677499998,1722.6164433000085,1722.6164433000085,1722.6164433000085,1722.6164433000085,1722.6164433000085,1722.6164433000085,1726.7648887000105,['l'],1,[4.140123999997741],[None],1726.7656794000068,1726.7794848000049,1726.7794848000049,1726.7794848000049,1727.3636173999985,4,0.5811756000039168,4,0.5811756000039168,,,,,,,,sub95_AB,001,2026-01-29_23h15.33.740,recognitionstage,,2025.1.1,60.051367939786175,2026-01-29 23h16.33.057630 +0530,
,,,18,18,0,25,frames\Vid25_BB_T.png,frames\Vid25_L.png,['r'],1,[5.221032600005856],[None],4,0.6976849000202492,,,,,0,18,18,24,1727.3836213999894,,22,Male,Right handed,Normal,,,,,,,,,,,,,,,,,,,,,,,,,,,,,,,,,,,,,,,,1727.3738315000082,1727.3836213999894,1727.3836213999894,1727.3836213999894,1727.3836213999894,1727.3836213999894,1727.3836213999894,1732.6151616999996,['r'],1,[5.221032600005856],[None],1732.6161984000064,1732.629774800007,1732.629774800007,1732.629774800007,1733.3303157000046,4,0.6976849000202492,4,0.6976849000202492,,,,,,,,sub95_AB,001,2026-01-29_23h15.33.740,recognitionstage,,2025.1.1,60.051367939786175,2026-01-29 23h16.33.057630 +0530,
,,,19,19,0,14,frames\Vid14_BB_T.png,frames\Vid14_L.png,['r'],1,[5.872103800007608],[None],4,0.43201000001863576,,,,,0,19,19,13,1733.3965001000033,,22,Male,Right handed,Normal,,,,,,,,,,,,,,,,,,,,,,,,,,,,,,,,,,,,,,,,1733.374292099994,1733.3965001000033,1733.3965001000033,1733.3965001000033,1733.3965001000033,1733.3965001000033,1733.3965001000033,1739.281698100007,['r'],1,[5.872103800007608],[None],1739.282704400015,1739.2960992000008,1739.2960992000008,1739.2960992000008,1739.7298632999882,4,0.43201000001863576,4,0.43201000001863576,,,,,,,,sub95_AB,001,2026-01-29_23h15.33.740,recognitionstage,,2025.1.1,60.051367939786175,2026-01-29 23h16.33.057630 +0530,
,,,20,20,0,22,frames\Vid22_EM_T.png,frames\Vid22_L.png,['r'],1,[5.759044299978996],[None],5,1.464428700011922,,,,,0,20,20,21,1739.7656730000162,,22,Male,Right handed,Normal,,,,,,,,,,,,,,,,,,,,,,,,,,,,,,,,,,,,,,,,1739.7417133999988,1739.7656730000162,1739.7656730000162,1739.7656730000162,1739.7656730000162,1739.7656730000162,1739.7656730000162,1745.531988600007,['r'],1,[5.759044299978996],[None],1745.533057099994,1745.546542600001,1745.546542600001,1745.546542600001,1747.013787600008,5,1.464428700011922,5,1.464428700011922,,,,,,,,sub95_AB,001,2026-01-29_23h15.33.740,recognitionstage,,2025.1.1,60.051367939786175,2026-01-29 23h16.33.057630 +0530,
,,,21,21,0,30,frames\Vid30_EM_T.png,frames\Vid30_L.png,['l'],1,[3.1823814999952447],[None],4,0.7646627000067383,,,,,0,21,21,29,1747.0461263000034,,22,Male,Right handed,Normal,,,,,,,,,,,,,,,,,,,,,,,,,,,,,,,,,,,,,,,,1747.0240373999986,1747.0461263000034,1747.0461263000034,1747.0461263000034,1747.0461263000034,1747.0461263000034,1747.0461263000034,1750.2319768000161,['l'],1,[3.1823814999952447],[None],1750.2327131000056,1750.2463542000041,1750.2463542000041,1750.2463542000041,1751.0131499000126,4,0.7646627000067383,4,0.7646627000067383,,,,,,,,sub95_AB,001,2026-01-29_23h15.33.740,recognitionstage,,2025.1.1,60.051367939786175,2026-01-29 23h16.33.057630 +0530,
,,,22,22,0,26,frames\Vid26_EM_T.png,frames\Vid26_L.png,['r'],1,[2.6860353000229225],[None],4,0.5301145000266843,,,,,0,22,22,25,1751.0464712000103,,22,Male,Right handed,Normal,,,,,,,,,,,,,,,,,,,,,,,,,,,,,,,,,,,,,,,,1751.0284186000063,1751.0464712000103,1751.0464712000103,1751.0464712000103,1751.0464712000103,1751.0464712000103,1751.0464712000103,1753.7331293000025,['r'],1,[2.6860353000229225],[None],1753.7341659000085,1753.746134599991,1753.746134599991,1753.746134599991,1754.2800072999962,4,0.5301145000266843,4,0.5301145000266843,,,,,,,,sub95_AB,001,2026-01-29_23h15.33.740,recognitionstage,,2025.1.1,60.051367939786175,2026-01-29 23h16.33.057630 +0530,
,,,23,23,0,29,frames\Vid29_BB_T.png,frames\Vid29_L.png,['l'],0,[6.505956600012723],[None],4,0.38183219998609275,,,,,0,23,23,28,1754.2985869999975,,22,Male,Right handed,Normal,,,,,,,,,,,,,,,,,,,,,,,,,,,,,,,,,,,,,,,,1754.2901722000097,1754.2985869999975,1754.2985869999975,1754.2985869999975,1754.2985869999975,1754.2985869999975,1754.2985869999975,1760.814729900012,['l'],0,[6.505956600012723],[None],1760.8157038000063,1760.82996979999,1760.82996979999,1760.82996979999,1761.213276800001,4,0.38183219998609275,4,0.38183219998609275,,,,,,,,sub95_AB,001,2026-01-29_23h15.33.740,recognitionstage,,2025.1.1,60.051367939786175,2026-01-29 23h16.33.057630 +0530,
,,,24,24,0,10,frames\Vid10_BB_T.png,frames\Vid10_L.png,['r'],1,[4.613384500000393],[None],1,1.4460775000043213,,,,,0,24,24,9,1761.2632838000136,,22,Male,Right handed,Normal,,,,,,,,,,,,,,,,,,,,,,,,,,,,,,,,,,,,,,,,1761.2547105000122,1761.2632838000136,1761.2632838000136,1761.2632838000136,1761.2632838000136,1761.2632838000136,1761.2632838000136,1765.883195900009,['r'],1,[4.613384500000393],[None],1765.884751900012,1765.9112946999958,1765.9112946999958,1765.9112946999958,1767.3472121999948,1,1.4460775000043213,1,1.4460775000043213,,,,,,,,sub95_AB,001,2026-01-29_23h15.33.740,recognitionstage,,2025.1.1,60.051367939786175,2026-01-29 23h16.33.057630 +0530,
,,,25,25,0,1,frames\Vid1_EM_T.png,frames\Vid1_L.png,['l'],1,[4.3558650000195485],[None],5,1.2492077999922913,,,,,0,25,25,0,1767.4166105999902,,22,Male,Right handed,Normal,,,,,,,,,,,,,,,,,,,,,,,,,,,,,,,,,,,,,,,,1767.3948139999993,1767.4166105999902,1767.4166105999902,1767.4166105999902,1767.4166105999902,1767.4166105999902,1767.4166105999902,1771.7808821999934,['l'],1,[4.3558650000195485],[None],1771.7816109000123,1771.7964859000058,1771.7964859000058,1771.7964859000058,1773.0472489999956,5,1.2492077999922913,5,1.2492077999922913,,,,,,,,sub95_AB,001,2026-01-29_23h15.33.740,recognitionstage,,2025.1.1,60.051367939786175,2026-01-29 23h16.33.057630 +0530,
,,,26,26,0,32,frames\Vid32_EM_T.png,frames\Vid32_L.png,['r'],1,[2.4337978000112344],[None],1,0.9806790000002366,,,,,0,26,26,31,1773.082671799988,,22,Male,Right handed,Normal,,,,,,,,,,,,,,,,,,,,,,,,,,,,,,,,,,,,,,,,1773.060464500013,1773.082671799988,1773.082671799988,1773.082671799988,1773.082671799988,1773.082671799988,1773.082671799988,1775.5322225000127,['r'],1,[2.4337978000112344],[None],1775.5333034000068,1775.5614231000072,1775.5614231000072,1775.5614231000072,1776.5307127000124,1,0.9806790000002366,1,0.9806790000002366,,,,,,,,sub95_AB,001,2026-01-29_23h15.33.740,recognitionstage,,2025.1.1,60.051367939786175,2026-01-29 23h16.33.057630 +0530,
,,,27,27,0,16,frames\Vid16_EM_T.png,frames\Vid16_L.png,['r'],0,[4.344587400002638],[None],4,1.2641162000072654,,,,,0,27,27,15,1776.580070099997,,22,Male,Right handed,Normal,,,,,,,,,,,,,,,,,,,,,,,,,,,,,,,,,,,,,,,,1776.5730295999965,1776.580070099997,1776.580070099997,1776.580070099997,1776.580070099997,1776.580070099997,1776.580070099997,1780.9325036999944,['r'],0,[4.344587400002638],[None],1780.9334829,1780.9460618000012,1780.9460618000012,1780.9460618000012,1782.2132836999954,4,1.2641162000072654,4,1.2641162000072654,,,,,,,,sub95_AB,001,2026-01-29_23h15.33.740,recognitionstage,,2025.1.1,60.051367939786175,2026-01-29 23h16.33.057630 +0530,
,,,28,28,0,40,frames\Vid40_EM_T.png,frames\Vid40_L.png,['l'],1,[3.9140916999895126],[None],2,1.030701699986821,,,,,0,28,28,39,1782.234421000001,,22,Male,Right handed,Normal,,,,,,,,,,,,,,,,,,,,,,,,,,,,,,,,,,,,,,,,1782.221800600004,1782.234421000001,1782.234421000001,1782.234421000001,1782.234421000001,1782.234421000001,1782.234421000001,1786.166152699996,['l'],1,[3.9140916999895126],[None],1786.1673578000045,1786.1793730999925,1786.1793730999925,1786.1793730999925,1787.2139356000116,2,1.030701699986821,2,1.030701699986821,,,,,,,,sub95_AB,001,2026-01-29_23h15.33.740,recognitionstage,,2025.1.1,60.051367939786175,2026-01-29 23h16.33.057630 +0530,
,,,29,29,0,7,frames\Vid7_EM_T.png,frames\Vid7_L.png,['r'],0,[4.1886710000108],[None],4,2.2649727999814786,,,,,0,29,29,6,1787.2798269999912,,22,Male,Right handed,Normal,,,,,,,,,,,,,,,,,,,,,,,,,,,,,,,,,,,,,,,,1787.257586599997,1787.2798269999912,1787.2798269999912,1787.2798269999912,1787.2798269999912,1787.2798269999912,1787.2798269999912,1791.4811033000005,['r'],0,[4.1886710000108],[None],1791.4820257000101,1791.4963522999897,1791.4963522999897,1791.4963522999897,1793.7644099000026,4,2.2649727999814786,4,2.2649727999814786,,,,,,,,sub95_AB,001,2026-01-29_23h15.33.740,recognitionstage,,2025.1.1,60.051367939786175,2026-01-29 23h16.33.057630 +0530,
,,,30,30,0,3,frames\Vid3_BB_T.png,frames\Vid3_L.png,['l'],1,[3.380693399987649],[None],5,1.8306696999934502,,,,,0,30,30,2,1793.8158497000113,,22,Male,Right handed,Normal,,,,,,,,,,,,,,,,,,,,,,,,,,,,,,,,,,,,,,,,1793.805166700011,1793.8158497000113,1793.8158497000113,1793.8158497000113,1793.8158497000113,1793.8158497000113,1793.8158497000113,1797.1992173999897,['l'],1,[3.380693399987649],[None],1797.200231900002,1797.2126281000092,1797.2126281000092,1797.2126281000092,1799.0474247999955,5,1.8306696999934502,5,1.8306696999934502,,,,,,,,sub95_AB,001,2026-01-29_23h15.33.740,recognitionstage,,2025.1.1,60.051367939786175,2026-01-29 23h16.33.057630 +0530,
,,,31,31,0,24,frames\Vid24_BB_T.png,frames\Vid24_L.png,['l'],0,[2.6670547999965493],[None],4,0.8981574999925215,,,,,0,31,31,23,1799.081592100003,,22,Male,Right handed,Normal,,,,,,,,,,,,,,,,,,,,,,,,,,,,,,,,,,,,,,,,1799.060491500015,1799.081592100003,1799.081592100003,1799.081592100003,1799.081592100003,1799.081592100003,1799.081592100003,1801.7655234000122,['l'],0,[2.6670547999965493],[None],1801.766751999996,1801.7793461999972,1801.7793461999972,1801.7793461999972,1802.6804156000144,4,0.8981574999925215,4,0.8981574999925215,,,,,,,,sub95_AB,001,2026-01-29_23h15.33.740,recognitionstage,,2025.1.1,60.051367939786175,2026-01-29 23h16.33.057630 +0530,
,,,32,32,0,9,frames\Vid9_EM_T.png,frames\Vid9_L.png,['r'],1,[3.7705044000176713],[None],4,0.830916899984004,,,,,0,32,32,8,1802.730095900013,,22,Male,Right handed,Normal,,,,,,,,,,,,,,,,,,,,,,,,,,,,,,,,,,,,,,,,1802.7179413000122,1802.730095900013,1802.730095900013,1802.730095900013,1802.730095900013,1802.730095900013,1802.730095900013,1806.5154905999952,['r'],1,[3.7705044000176713],[None],1806.5165888000047,1806.5294720999955,1806.5294720999955,1806.5294720999955,1807.363616000017,4,0.830916899984004,4,0.830916899984004,,,,,,,,sub95_AB,001,2026-01-29_23h15.33.740,recognitionstage,,2025.1.1,60.051367939786175,2026-01-29 23h16.33.057630 +0530,
,,,33,33,0,5,frames\Vid5_EM_T.png,frames\Vid5_L.png,['r'],1,[4.908796400006395],[None],4,1.2641274000052363,,,,,0,33,33,4,1807.4158180000086,,22,Male,Right handed,Normal,,,,,,,,,,,,,,,,,,,,,,,,,,,,,,,,,,,,,,,,1807.394551400008,1807.4158180000086,1807.4158180000086,1807.4158180000086,1807.4158180000086,1807.4158180000086,1807.4158180000086,1812.3322831999976,['r'],1,[4.908796400006395],[None],1812.333340400015,1812.3460708000057,1812.3460708000057,1812.3460708000057,1813.6132511000033,4,1.2641274000052363,4,1.2641274000052363,,,,,,,,sub95_AB,001,2026-01-29_23h15.33.740,recognitionstage,,2025.1.1,60.051367939786175,2026-01-29 23h16.33.057630 +0530,
,,,34,34,0,23,frames\Vid23_EM_T.png,frames\Vid23_L.png,['l'],1,[3.2125808999990113],[None],1,1.379619699990144,,,,,0,34,34,22,1813.648137000011,,22,Male,Right handed,Normal,,,,,,,,,,,,,,,,,,,,,,,,,,,,,,,,,,,,,,,,1813.6276514999918,1813.648137000011,1813.648137000011,1813.648137000011,1813.648137000011,1813.648137000011,1813.648137000011,1816.8662033000146,['l'],1,[3.2125808999990113],[None],1816.8674707000027,1816.8798154999968,1816.8798154999968,1816.8798154999968,1818.264182599989,1,1.379619699990144,1,1.379619699990144,,,,,,,,sub95_AB,001,2026-01-29_23h15.33.740,recognitionstage,,2025.1.1,60.051367939786175,2026-01-29 23h16.33.057630 +0530,
,,,35,35,0,12,frames\Vid12_EM_T.png,frames\Vid12_L.png,['r'],1,[3.28215879999334],[None],1,2.3477665999962483,,,,,0,35,35,11,1818.3303513000137,,22,Male,Right handed,Normal,,,,,,,,,,,,,,,,,,,,,,,,,,,,,,,,,,,,,,,,1818.3075981000147,1818.3303513000137,1818.3303513000137,1818.3303513000137,1818.3303513000137,1818.3303513000137,1818.3303513000137,1821.6150917999912,['r'],1,[3.28215879999334],[None],1821.6159787999932,1821.6297993999906,1821.6297993999906,1821.6297993999906,1823.9807673000032,1,2.3477665999962483,1,2.3477665999962483,,,,,,,,sub95_AB,001,2026-01-29_23h15.33.740,recognitionstage,,2025.1.1,60.051367939786175,2026-01-29 23h16.33.057630 +0530,
,,,36,36,0,38,frames\Vid38_EM_T.png,frames\Vid38_L.png,['l'],1,[2.427728600014234],[None],3,0.8818677999952342,,,,,0,36,36,37,1824.0009007999906,,22,Male,Right handed,Normal,,,,,,,,,,,,,,,,,,,,,,,,,,,,,,,,,,,,,,,,1823.9903653000074,1824.0009007999906,1824.0009007999906,1824.0009007999906,1824.0009007999906,1824.0009007999906,1824.0009007999906,1826.4313059000124,['l'],1,[2.427728600014234],[None],1826.4322762000083,1826.446376100008,1826.446376100008,1826.446376100008,1827.330602300004,3,0.8818677999952342,3,0.8818677999952342,,,,,,,,sub95_AB,001,2026-01-29_23h15.33.740,recognitionstage,,2025.1.1,60.051367939786175,2026-01-29 23h16.33.057630 +0530,
,,,37,37,0,18,frames\Vid18_EM_T.png,frames\Vid18_L.png,['l'],1,[2.560923199984245],[None],3,0.7478862999996636,,,,,0,37,37,17,1827.3635649000062,,22,Male,Right handed,Normal,,,,,,,,,,,,,,,,,,,,,,,,,,,,,,,,,,,,,,,,1827.342898300005,1827.3635649000062,1827.3635649000062,1827.3635649000062,1827.3635649000062,1827.3635649000062,1827.3635649000062,1829.931207000016,['l'],1,[2.560923199984245],[None],1829.9329185000097,1829.9466849000019,1829.9466849000019,1829.9466849000019,1830.69653690001,3,0.7478862999996636,3,0.7478862999996636,,,,,,,,sub95_AB,001,2026-01-29_23h15.33.740,recognitionstage,,2025.1.1,60.051367939786175,2026-01-29 23h16.33.057630 +0530,
,,,38,38,0,39,frames\Vid39_BB_T.png,frames\Vid39_L.png,['l'],0,[1.9214071999886073],[None],3,0.38127260000328533,,,,,0,38,38,38,1830.7151430000085,,22,Male,Right handed,Normal,,,,,,,,,,,,,,,,,,,,,,,,,,,,,,,,,,,,,,,,1830.7041315000097,1830.7151430000085,1830.7151430000085,1830.7151430000085,1830.7151430000085,1830.7151430000085,1830.7151430000085,1832.6484323999903,['l'],0,[1.9214071999886073],[None],1832.649268100009,1832.662720799999,1832.662720799999,1832.662720799999,1833.047153899999,3,0.38127260000328533,3,0.38127260000328533,,,,,,,,sub95_AB,001,2026-01-29_23h15.33.740,recognitionstage,,2025.1.1,60.051367939786175,2026-01-29 23h16.33.057630 +0530,
,,,39,39,0,27,frames\Vid27_BB_T.png,frames\Vid27_L.png,['l'],0,[2.004230100021232],[None],4,1.013468399993144,,,,,0,39,39,26,1833.0644682999991,,22,Male,Right handed,Normal,,,,,,,,,,,,,,,,,,,,,,,,,,,,,,,,,,,,,,,,1833.0562325000064,1833.0644682999991,1833.0644682999991,1833.0644682999991,1833.0644682999991,1833.0644682999991,1833.0644682999991,1835.0826987999899,['l'],0,[2.004230100021232],[None],1835.083633000002,1835.0962056000135,1835.0962056000135,1835.0962056000135,1836.1145546000043,4,1.013468399993144,4,1.013468399993144,,,,,,,,sub95_AB,001,2026-01-29_23h15.33.740,recognitionstage,,2025.1.1,60.051367939786175,2026-01-29 23h16.33.057630 +0530,
,,,,,,,,,,,,,,,,,,,,,,,,,22,Male,Right handed,Normal,,,,,,,,,,,,,,,,,,,,,,,,,,,,,,,,,,,,,,,,,,,,,,,,,,,,,,,,,,,,,1836.1146731000044,1836.1299979999894,1836.1299979999894,1856.1312022999919,1856.1312022999919,1856.1139278000046,None,sub95_AB,001,2026-01-29_23h15.33.740,recognitionstage,,2025.1.1,60.051367939786175,2026-01-29 23h16.33.057630 +0530,
