path,duration,is_repeat,thisN,thisTrialN,thisRepN,movie_id,target_img,lure_img,resp.keys,resp.corr,resp.rt,resp.duration,conf_radio.response,conf_radio.rt,movie.thisRepN,movie.thisTrialN,movie.thisN,movie.thisIndex,recogloop.thisRepN,recogloop.thisTrialN,recogloop.thisN,recogloop.thisIndex,thisRow.t,notes,age,gender,handedness,vision,caffeine_2h,alcohol_smoke_12h,demographics.started,demographics.stopped,Instructions.started,text1.started,key_resp.started,Instructions.stopped,key_resp.keys,key_resp.rt,key_resp.duration,instruction_2.started,text2.started,key_resp_2.started,instruction_2.stopped,key_resp_2.keys,key_resp_2.rt,key_resp_2.duration,Videos.started,movie_2.started,vigilance_resp.started,movie_2.stopped,Videos.stopped,movie.vigilance_resp.keys,movie.vigilance_resp.rt,movie.vigilance_resp.duration,vigilance_pressed,vigilance_correct,ISI.started,text.started,ISI.stopped,text.stopped,recognition.started,text_4.started,key_resp_3.started,recognition.stopped,key_resp_3.keys,key_resp_3.rt,key_resp_3.duration,recognition_task.started,leftimage.started,rightimage.started,resp.started,frames_question.started,right_label.started,left_label.started,recognition_task.stopped,recogloop.resp.keys,recogloop.resp.corr,recogloop.resp.rt,recogloop.resp.duration,confidence.started,conf_text.started,conf_radio.started,conf_label.started,confidence.stopped,recogloop.conf_radio.response,recogloop.conf_radio.rt,confidence,confidence_rt,thank_you.started,text_6.started,key_resp_4.started,thank_you.stopped,key_resp_4.keys,key_resp_4.rt,key_resp_4.duration,participant,session,date,expName,expVersion,psychopyVersion,frameRate,expStart,...105
,,,,,,,,,,,,,,,,,,,,,,,,,26,Male,Right handed,Corrected to normal,Caffeine consumed in last 2 hours?,Alcohol or smoking in last 12 hours?,0.01030739999259822,0.01275220001116395,,,,,,,,,,,,,,,,,,,,,,,,,,,,,,,,,,,,,,,,,,,,,,,,,,,,,,,,,,,,,,,,sub92_AB,001,2026-01-29_22h02.46.526,recognitionstage,,2025.1.1,59.59429396358039,2026-01-29 22h03.21.241279 +0530,
,,,,,,,,,,,,,,,,,,,,,,,,,26,Male,Right handed,Corrected to normal,,,,,0.012773900001775473,0.028676699992502108,0.028676699992502108,6.296277599991299,space,6.262746199994581,None,,,,,,,,,,,,,,,,,,,,,,,,,,,,,,,,,,,,,,,,,,,,,,,,,,,,,,,,,sub92_AB,001,2026-01-29_22h02.46.526,recognitionstage,,2025.1.1,59.59429396358039,2026-01-29 22h03.21.241279 +0530,
,,,,,,,,,,,,,,,,,,,,,,,,,26,Male,Right handed,Corrected to normal,,,,,,,,,,,,6.296328900003573,6.312504100002116,6.312504100002116,14.498139300005278,space,8.179105000017444,None,,,,,,,,,,,,,,,,,,,,,,,,,,,,,,,,,,,,,,,,,,,,,,,,,,sub92_AB,001,2026-01-29_22h02.46.526,recognitionstage,,2025.1.1,59.59429396358039,2026-01-29 22h03.21.241279 +0530,
abrupt_videos\abrupt_16.mp4,34,0,44,44,0,,,,,,,,,,0,44,44,17,,,,,1543.6783637999906,,26,Male,Right handed,Corrected to normal,,,,,,,,,,,,,,,,,,,1543.6347907000163,1543.6783637999906,1543.6783637999906,1578.077641300013,1577.936629600008,None,3.219394399988232,None,0,1,1578.0717766000016,1578.077641300013,1580.564611400012,1580.5798627999902,1580.5646869000047,1580.5798627999902,1580.5798627999902,1594.6807824000134,space,14.088009800005239,None,,,,,,,,,,,,,,,,,,,,,,,,,,,,,sub92_AB,001,2026-01-29_22h02.46.526,recognitionstage,,2025.1.1,59.59429396358039,2026-01-29 22h03.21.241279 +0530,
,,,0,0,0,38,frames\Vid38_EM_T.png,frames\Vid38_L.png,['r'],1,[6.8770386000105646],[None],4,6.795570799993584,,,,,0,0,0,37,1594.710704099998,,26,Male,Right handed,Corrected to normal,,,,,,,,,,,,,,,,,,,,,,,,,,,,,,,,,,,,,,,,1594.698536300013,1594.710704099998,1594.710704099998,1594.710704099998,1594.710704099998,1594.710704099998,1594.710704099998,1601.5990317999967,['r'],1,[6.8770386000105646],[None],1601.6002967999957,1601.6266896000016,1601.6266896000016,1601.6266896000016,1608.413134100003,4,6.795570799993584,4,6.795570799993584,,,,,,,,sub92_AB,001,2026-01-29_22h02.46.526,recognitionstage,,2025.1.1,59.59429396358039,2026-01-29 22h03.21.241279 +0530,
,,,1,1,0,10,frames\Vid10_BB_T.png,frames\Vid10_L.png,['r'],1,[4.2780417000176385],[None],5,1.9316234000143595,,,,,0,1,1,9,1608.4776156000153,,26,Male,Right handed,Corrected to normal,,,,,,,,,,,,,,,,,,,,,,,,,,,,,,,,,,,,,,,,1608.4603059999936,1608.4776156000153,1608.4776156000153,1608.4776156000153,1608.4776156000153,1608.4776156000153,1608.4776156000153,1612.7639442000072,['r'],1,[4.2780417000176385],[None],1612.764988800016,1612.7784321999934,1612.7784321999934,1612.7784321999934,1614.7129943000036,5,1.9316234000143595,5,1.9316234000143595,,,,,,,,sub92_AB,001,2026-01-29_22h02.46.526,recognitionstage,,2025.1.1,59.59429396358039,2026-01-29 22h03.21.241279 +0530,
,,,2,2,0,22,frames\Vid22_EM_T.png,frames\Vid22_L.png,['r'],1,[2.971854799980065],[None],5,1.8483291000011377,,,,,0,2,2,21,1614.7437778000021,,26,Male,Right handed,Corrected to normal,,,,,,,,,,,,,,,,,,,,,,,,,,,,,,,,,,,,,,,,1614.739379800012,1614.7437778000021,1614.7437778000021,1614.7437778000021,1614.7437778000021,1614.7437778000021,1614.7437778000021,1617.7311040000059,['r'],1,[2.971854799980065],[None],1617.7320007999951,1617.7451464000042,1617.7451464000042,1617.7451464000042,1619.5962544000067,5,1.8483291000011377,5,1.8483291000011377,,,,,,,,sub92_AB,001,2026-01-29_22h02.46.526,recognitionstage,,2025.1.1,59.59429396358039,2026-01-29 22h03.21.241279 +0530,
,,,3,3,0,8,frames\Vid8_BB_T.png,frames\Vid8_L.png,['l'],1,[8.829773999983445],[None],5,2.8154020000074524,,,,,0,3,3,7,1619.6458656000032,,26,Male,Right handed,Corrected to normal,,,,,,,,,,,,,,,,,,,,,,,,,,,,,,,,,,,,,,,,1619.6351646000112,1619.6458656000032,1619.6458656000032,1619.6458656000032,1619.6458656000032,1619.6458656000032,1619.6458656000032,1628.4801134000008,['l'],1,[8.829773999983445],[None],1628.481017300015,1628.4953492000059,1628.4953492000059,1628.4953492000059,1631.312692300009,5,2.8154020000074524,5,2.8154020000074524,,,,,,,,sub92_AB,001,2026-01-29_22h02.46.526,recognitionstage,,2025.1.1,59.59429396358039,2026-01-29 22h03.21.241279 +0530,
,,,4,4,0,6,frames\Vid6_BB_T.png,frames\Vid6_L.png,['l'],1,[5.685533599986229],[None],5,1.9494827000016812,,,,,0,4,4,5,1631.3821824000042,,26,Male,Right handed,Corrected to normal,,,,,,,,,,,,,,,,,,,,,,,,,,,,,,,,,,,,,,,,1631.357659500005,1631.3821824000042,1631.3821824000042,1631.3821824000042,1631.3821824000042,1631.3821824000042,1631.3821824000042,1637.0800877000147,['l'],1,[5.685533599986229],[None],1637.080864299991,1637.095503199991,1637.095503199991,1637.095503199991,1639.0460836999991,5,1.9494827000016812,5,1.9494827000016812,,,,,,,,sub92_AB,001,2026-01-29_22h02.46.526,recognitionstage,,2025.1.1,59.59429396358039,2026-01-29 22h03.21.241279 +0530,
,,,5,5,0,33,frames\Vid33_BB_T.png,frames\Vid33_L.png,['r'],1,[4.825608799990732],[None],5,1.679570500011323,,,,,0,5,5,32,1639.082203500002,,26,Male,Right handed,Corrected to normal,,,,,,,,,,,,,,,,,,,,,,,,,,,,,,,,,,,,,,,,1639.0578596999985,1639.082203500002,1639.082203500002,1639.082203500002,1639.082203500002,1639.082203500002,1639.082203500002,1643.9154099000152,['r'],1,[4.825608799990732],[None],1643.9169919000124,1643.928689399996,1643.928689399996,1643.928689399996,1645.61248109999,5,1.679570500011323,5,1.679570500011323,,,,,,,,sub92_AB,001,2026-01-29_22h02.46.526,recognitionstage,,2025.1.1,59.59429396358039,2026-01-29 22h03.21.241279 +0530,
,,,6,6,0,37,frames\Vid37_BB_T.png,frames\Vid37_L.png,['l'],1,[3.190303099981975],[None],5,1.4495462000195403,,,,,0,6,6,36,1645.6453613000049,,26,Male,Right handed,Corrected to normal,,,,,,,,,,,,,,,,,,,,,,,,,,,,,,,,,,,,,,,,1645.6256218999915,1645.6453613000049,1645.6453613000049,1645.6453613000049,1645.6453613000049,1645.6453613000049,1645.6453613000049,1648.8469737000123,['l'],1,[3.190303099981975],[None],1648.8479944000137,1648.8620638000139,1648.8620638000139,1648.8620638000139,1650.3128666999983,5,1.4495462000195403,5,1.4495462000195403,,,,,,,,sub92_AB,001,2026-01-29_22h02.46.526,recognitionstage,,2025.1.1,59.59429396358039,2026-01-29 22h03.21.241279 +0530,
,,,7,7,0,15,frames\Vid15_BB_T.png,frames\Vid15_L.png,['r'],1,[3.5047223000146914],[None],4,1.3984446999966167,,,,,0,7,7,14,1650.3790553,,26,Male,Right handed,Corrected to normal,,,,,,,,,,,,,,,,,,,,,,,,,,,,,,,,,,,,,,,,1650.3630862999998,1650.3790553,1650.3790553,1650.3790553,1650.3790553,1650.3790553,1650.3790553,1653.897775599995,['r'],1,[3.5047223000146914],[None],1653.8986655999906,1653.9116811999993,1653.9116811999993,1653.9116811999993,1655.3123863000073,4,1.3984446999966167,4,1.3984446999966167,,,,,,,,sub92_AB,001,2026-01-29_22h02.46.526,recognitionstage,,2025.1.1,59.59429396358039,2026-01-29 22h03.21.241279 +0530,
,,,8,8,0,18,frames\Vid18_EM_T.png,frames\Vid18_L.png,['r'],1,[4.950136800005566],[None],3,1.931634500011569,,,,,0,8,8,17,1655.3334080000059,,26,Male,Right handed,Corrected to normal,,,,,,,,,,,,,,,,,,,,,,,,,,,,,,,,,,,,,,,,1655.3227552000026,1655.3334080000059,1655.3334080000059,1655.3334080000059,1655.3334080000059,1655.3334080000059,1655.3334080000059,1660.2975040000165,['r'],1,[4.950136800005566],[None],1660.2983444000129,1660.3117052000016,1660.3117052000016,1660.3117052000016,1662.2461746000045,3,1.931634500011569,3,1.931634500011569,,,,,,,,sub92_AB,001,2026-01-29_22h02.46.526,recognitionstage,,2025.1.1,59.59429396358039,2026-01-29 22h03.21.241279 +0530,
,,,9,9,0,29,frames\Vid29_BB_T.png,frames\Vid29_L.png,['r'],1,[6.621220999979414],[None],3,1.1639213000016753,,,,,0,9,9,28,1662.278504899994,,26,Male,Right handed,Corrected to normal,,,,,,,,,,,,,,,,,,,,,,,,,,,,,,,,,,,,,,,,1662.2573849000037,1662.278504899994,1662.278504899994,1662.278504899994,1662.278504899994,1662.278504899994,1662.278504899994,1668.9139649000135,['r'],1,[6.621220999979414],[None],1668.915427400003,1668.9289274000039,1668.9289274000039,1668.9289274000039,1670.09647769999,3,1.1639213000016753,3,1.1639213000016753,,,,,,,,sub92_AB,001,2026-01-29_22h02.46.526,recognitionstage,,2025.1.1,59.59429396358039,2026-01-29 22h03.21.241279 +0530,
,,,10,10,0,13,frames\Vid13_BB_T.png,frames\Vid13_L.png,['l'],1,[5.073408000025665],[None],4,2.4153761000197846,,,,,0,10,10,12,1670.1462044999935,,26,Male,Right handed,Corrected to normal,,,,,,,,,,,,,,,,,,,,,,,,,,,,,,,,,,,,,,,,1670.1298715000157,1670.1462044999935,1670.1462044999935,1670.1462044999935,1670.1462044999935,1670.1462044999935,1670.1462044999935,1675.2308415000152,['l'],1,[5.073408000025665],[None],1675.2316142999916,1675.2451656000048,1675.2451656000048,1675.2451656000048,1677.6625926000124,4,2.4153761000197846,4,2.4153761000197846,,,,,,,,sub92_AB,001,2026-01-29_22h02.46.526,recognitionstage,,2025.1.1,59.59429396358039,2026-01-29 22h03.21.241279 +0530,
,,,11,11,0,9,frames\Vid9_EM_T.png,frames\Vid9_L.png,['l'],1,[3.8884346000268124],[None],3,1.464538200001698,,,,,0,11,11,8,1677.715163899993,,26,Male,Right handed,Corrected to normal,,,,,,,,,,,,,,,,,,,,,,,,,,,,,,,,,,,,,,,,1677.7002255000116,1677.715163899993,1677.715163899993,1677.715163899993,1677.715163899993,1677.715163899993,1677.715163899993,1681.613677699992,['l'],1,[3.8884346000268124],[None],1681.6149395999964,1681.6287128000113,1681.6287128000113,1681.6287128000113,1683.0963293999957,3,1.464538200001698,3,1.464538200001698,,,,,,,,sub92_AB,001,2026-01-29_22h02.46.526,recognitionstage,,2025.1.1,59.59429396358039,2026-01-29 22h03.21.241279 +0530,
,,,12,12,0,11,frames\Vid11_EM_T.png,frames\Vid11_L.png,['l'],1,[3.015658699994674],[None],5,1.8972653000091668,,,,,0,12,12,10,1683.148006000003,,26,Male,Right handed,Corrected to normal,,,,,,,,,,,,,,,,,,,,,,,,,,,,,,,,,,,,,,,,1683.1383171000052,1683.148006000003,1683.148006000003,1683.148006000003,1683.148006000003,1683.148006000003,1683.148006000003,1686.1646493000153,['l'],1,[3.015658699994674],[None],1686.1656034000043,1686.1784009000112,1686.1784009000112,1686.1784009000112,1688.0789404000097,5,1.8972653000091668,5,1.8972653000091668,,,,,,,,sub92_AB,001,2026-01-29_22h02.46.526,recognitionstage,,2025.1.1,59.59429396358039,2026-01-29 22h03.21.241279 +0530,
,,,13,13,0,35,frames\Vid35_EM_T.png,frames\Vid35_L.png,['r'],1,[4.15203970001312],[None],5,1.799452899984317,,,,,0,13,13,34,1688.0995669999975,,26,Male,Right handed,Corrected to normal,,,,,,,,,,,,,,,,,,,,,,,,,,,,,,,,,,,,,,,,1688.0875394000032,1688.0995669999975,1688.0995669999975,1688.0995669999975,1688.0995669999975,1688.0995669999975,1688.0995669999975,1692.2633580999973,['r'],1,[4.15203970001312],[None],1692.264033000014,1692.278760300018,1692.278760300018,1692.278760300018,1694.0794094000012,5,1.799452899984317,5,1.799452899984317,,,,,,,,sub92_AB,001,2026-01-29_22h02.46.526,recognitionstage,,2025.1.1,59.59429396358039,2026-01-29 22h03.21.241279 +0530,
,,,14,14,0,32,frames\Vid32_EM_T.png,frames\Vid32_L.png,['l'],1,[3.595908099989174],[None],5,2.0988387999823317,,,,,0,14,14,31,1694.1117929000175,,26,Male,Right handed,Corrected to normal,,,,,,,,,,,,,,,,,,,,,,,,,,,,,,,,,,,,,,,,1694.0927826999978,1694.1117929000175,1694.1117929000175,1694.1117929000175,1694.1117929000175,1694.1117929000175,1694.1117929000175,1697.7132291000162,['l'],1,[3.595908099989174],[None],1697.7137423999957,1697.7288920000137,1697.7288920000137,1697.7288920000137,1699.8302534999966,5,2.0988387999823317,5,2.0988387999823317,,,,,,,,sub92_AB,001,2026-01-29_22h02.46.526,recognitionstage,,2025.1.1,59.59429396358039,2026-01-29 22h03.21.241279 +0530,
,,,15,15,0,7,frames\Vid7_EM_T.png,frames\Vid7_L.png,['l'],1,[4.980515299976105],[None],5,1.2469591999833938,,,,,0,15,15,6,1699.8793047000072,,26,Male,Right handed,Corrected to normal,,,,,,,,,,,,,,,,,,,,,,,,,,,,,,,,,,,,,,,,1699.872967400006,1699.8793047000072,1699.8793047000072,1699.8793047000072,1699.8793047000072,1699.8793047000072,1699.8793047000072,1704.865260999999,['l'],1,[4.980515299976105],[None],1704.8664350000035,1704.8938705000037,1704.8938705000037,1704.8938705000037,1706.1293161000067,5,1.2469591999833938,5,1.2469591999833938,,,,,,,,sub92_AB,001,2026-01-29_22h02.46.526,recognitionstage,,2025.1.1,59.59429396358039,2026-01-29 22h03.21.241279 +0530,
,,,16,16,0,5,frames\Vid5_EM_T.png,frames\Vid5_L.png,['l'],0,[7.1743561000039335],[None],3,1.9972422000137158,,,,,0,16,16,4,1706.1814131000137,,26,Male,Right handed,Corrected to normal,,,,,,,,,,,,,,,,,,,,,,,,,,,,,,,,,,,,,,,,1706.1586156999983,1706.1814131000137,1706.1814131000137,1706.1814131000137,1706.1814131000137,1706.1814131000137,1706.1814131000137,1713.364934400015,['l'],0,[7.1743561000039335],[None],1713.3661398999975,1713.3783677000029,1713.3783677000029,1713.3783677000029,1715.379096699995,3,1.9972422000137158,3,1.9972422000137158,,,,,,,,sub92_AB,001,2026-01-29_22h02.46.526,recognitionstage,,2025.1.1,59.59429396358039,2026-01-29 22h03.21.241279 +0530,
,,,17,17,0,24,frames\Vid24_BB_T.png,frames\Vid24_L.png,['l'],1,[3.3014828999876045],[None],5,1.9642840000160504,,,,,0,17,17,23,1715.4141153999954,,26,Male,Right handed,Corrected to normal,,,,,,,,,,,,,,,,,,,,,,,,,,,,,,,,,,,,,,,,1715.3929023999954,1715.4141153999954,1715.4141153999954,1715.4141153999954,1715.4141153999954,1715.4141153999954,1715.4141153999954,1718.7311416000011,['l'],1,[3.3014828999876045],[None],1718.7321827000123,1718.7451200000069,1718.7451200000069,1718.7451200000069,1720.7131118999969,5,1.9642840000160504,5,1.9642840000160504,,,,,,,,sub92_AB,001,2026-01-29_22h02.46.526,recognitionstage,,2025.1.1,59.59429396358039,2026-01-29 22h03.21.241279 +0530,
,,,18,18,0,3,frames\Vid3_BB_T.png,frames\Vid3_L.png,['l'],1,[4.385217400005786],[None],5,1.6988044999889098,,,,,0,18,18,2,1720.7623460000032,,26,Male,Right handed,Corrected to normal,,,,,,,,,,,,,,,,,,,,,,,,,,,,,,,,,,,,,,,,1720.7519213999913,1720.7623460000032,1720.7623460000032,1720.7623460000032,1720.7623460000032,1720.7623460000032,1720.7623460000032,1725.163451600005,['l'],1,[4.385217400005786],[None],1725.164373800013,1725.179147799994,1725.179147799994,1725.179147799994,1726.8794247999904,5,1.6988044999889098,5,1.6988044999889098,,,,,,,,sub92_AB,001,2026-01-29_22h02.46.526,recognitionstage,,2025.1.1,59.59429396358039,2026-01-29 22h03.21.241279 +0530,
,,,19,19,0,28,frames\Vid28_EM_T.png,frames\Vid28_L.png,['l'],1,[3.0482472000003327],[None],5,2.0478744999854825,,,,,0,19,19,27,1726.8995356000087,,26,Male,Right handed,Corrected to normal,,,,,,,,,,,,,,,,,,,,,,,,,,,,,,,,,,,,,,,,1726.8884682999924,1726.8995356000087,1726.8995356000087,1726.8995356000087,1726.8995356000087,1726.8995356000087,1726.8995356000087,1729.9639804000035,['l'],1,[3.0482472000003327],[None],1729.9653473999933,1729.9799222000001,1729.9799222000001,1729.9799222000001,1732.0290111000068,5,2.0478744999854825,5,2.0478744999854825,,,,,,,,sub92_AB,001,2026-01-29_22h02.46.526,recognitionstage,,2025.1.1,59.59429396358039,2026-01-29 22h03.21.241279 +0530,
,,,20,20,0,27,frames\Vid27_BB_T.png,frames\Vid27_L.png,['l'],1,[5.604436499997973],[None],3,2.447499500005506,,,,,0,20,20,26,1732.047239800013,,26,Male,Right handed,Corrected to normal,,,,,,,,,,,,,,,,,,,,,,,,,,,,,,,,,,,,,,,,1732.037284799997,1732.047239800013,1732.047239800013,1732.047239800013,1732.047239800013,1732.047239800013,1732.047239800013,1737.6646312999947,['l'],1,[5.604436499997973],[None],1737.6658372000093,1737.693562200002,1737.693562200002,1737.693562200002,1740.1287345000019,3,2.447499500005506,3,2.447499500005506,,,,,,,,sub92_AB,001,2026-01-29_22h02.46.526,recognitionstage,,2025.1.1,59.59429396358039,2026-01-29 22h03.21.241279 +0530,
,,,21,21,0,1,frames\Vid1_EM_T.png,frames\Vid1_L.png,['r'],1,[4.815712400013581],[None],4,1.197980800003279,,,,,0,21,21,0,1740.1958912000118,,26,Male,Right handed,Corrected to normal,,,,,,,,,,,,,,,,,,,,,,,,,,,,,,,,,,,,,,,,1740.1738224000146,1740.1958912000118,1740.1958912000118,1740.1958912000118,1740.1958912000118,1740.1958912000118,1740.1958912000118,1745.013917400007,['r'],1,[4.815712400013581],[None],1745.015195200016,1745.0286099000077,1745.0286099000077,1745.0286099000077,1746.2290686999913,4,1.197980800003279,4,1.197980800003279,,,,,,,,sub92_AB,001,2026-01-29_22h02.46.526,recognitionstage,,2025.1.1,59.59429396358039,2026-01-29 22h03.21.241279 +0530,
,,,22,22,0,12,frames\Vid12_EM_T.png,frames\Vid12_L.png,['l'],1,[2.848477499996079],[None],5,2.5126523000071757,,,,,0,22,22,11,1746.299257000006,,26,Male,Right handed,Corrected to normal,,,,,,,,,,,,,,,,,,,,,,,,,,,,,,,,,,,,,,,,1746.273930299998,1746.299257000006,1746.299257000006,1746.299257000006,1746.299257000006,1746.299257000006,1746.299257000006,1749.148857799999,['l'],1,[2.848477499996079],[None],1749.1500939000107,1749.1616735999996,1749.1616735999996,1749.1616735999996,1751.6793303000159,5,2.5126523000071757,5,2.5126523000071757,,,,,,,,sub92_AB,001,2026-01-29_22h02.46.526,recognitionstage,,2025.1.1,59.59429396358039,2026-01-29 22h03.21.241279 +0530,
,,,23,23,0,30,frames\Vid30_EM_T.png,frames\Vid30_L.png,['l'],1,[10.151781599997776],[None],5,1.7489187000028323,,,,,0,23,23,29,1751.6998380000005,,26,Male,Right handed,Corrected to normal,,,,,,,,,,,,,,,,,,,,,,,,,,,,,,,,,,,,,,,,1751.6893054000102,1751.6998380000005,1751.6998380000005,1751.6998380000005,1751.6998380000005,1751.6998380000005,1751.6998380000005,1761.8637061000045,['l'],1,[10.151781599997776],[None],1761.8645723999944,1761.8789107000048,1761.8789107000048,1761.8789107000048,1763.6296616999898,5,1.7489187000028323,5,1.7489187000028323,,,,,,,,sub92_AB,001,2026-01-29_22h02.46.526,recognitionstage,,2025.1.1,59.59429396358039,2026-01-29 22h03.21.241279 +0530,
,,,24,24,0,34,frames\Vid34_BB_T.png,frames\Vid34_L.png,['r'],1,[6.093739400006598],[None],2,1.3319418000173755,,,,,0,24,24,33,1763.6619132999913,,26,Male,Right handed,Corrected to normal,,,,,,,,,,,,,,,,,,,,,,,,,,,,,,,,,,,,,,,,1763.6401310999936,1763.6619132999913,1763.6619132999913,1763.6619132999913,1763.6619132999913,1763.6619132999913,1763.6619132999913,1769.7635167000117,['r'],1,[6.093739400006598],[None],1769.7643966999894,1769.7790157000127,1769.7790157000127,1769.7790157000127,1771.1131539999915,2,1.3319418000173755,2,1.3319418000173755,,,,,,,,sub92_AB,001,2026-01-29_22h02.46.526,recognitionstage,,2025.1.1,59.59429396358039,2026-01-29 22h03.21.241279 +0530,
,,,25,25,0,21,frames\Vid21_BB_T.png,frames\Vid21_L.png,['l'],1,[3.3140202999929897],[None],5,1.6140055000141729,,,,,0,25,25,20,1771.1456478000036,,26,Male,Right handed,Corrected to normal,,,,,,,,,,,,,,,,,,,,,,,,,,,,,,,,,,,,,,,,1771.127339300001,1771.1456478000036,1771.1456478000036,1771.1456478000036,1771.1456478000036,1771.1456478000036,1771.1456478000036,1774.4647094999964,['l'],1,[3.3140202999929897],[None],1774.4657823000161,1774.4783482000057,1774.4783482000057,1774.4783482000057,1776.0960548000003,5,1.6140055000141729,5,1.6140055000141729,,,,,,,,sub92_AB,001,2026-01-29_22h02.46.526,recognitionstage,,2025.1.1,59.59429396358039,2026-01-29 22h03.21.241279 +0530,
,,,26,26,0,23,frames\Vid23_EM_T.png,frames\Vid23_L.png,['r'],1,[1.978520100004971],[None],5,1.279468699998688,,,,,0,26,26,22,1776.1293253999902,,26,Male,Right handed,Corrected to normal,,,,,,,,,,,,,,,,,,,,,,,,,,,,,,,,,,,,,,,,1776.110172100016,1776.1293253999902,1776.1293253999902,1776.1293253999902,1776.1293253999902,1776.1293253999902,1776.1293253999902,1778.1157748000114,['r'],1,[1.978520100004971],[None],1778.116869199992,1778.1285457999911,1778.1285457999911,1778.1285457999911,1779.4136572999996,5,1.279468699998688,5,1.279468699998688,,,,,,,,sub92_AB,001,2026-01-29_22h02.46.526,recognitionstage,,2025.1.1,59.59429396358039,2026-01-29 22h03.21.241279 +0530,
,,,27,27,0,25,frames\Vid25_BB_T.png,frames\Vid25_L.png,['l'],1,[5.6383981999824755],[None],4,2.8137841999996454,,,,,0,27,27,24,1779.4453298000153,,26,Male,Right handed,Corrected to normal,,,,,,,,,,,,,,,,,,,,,,,,,,,,,,,,,,,,,,,,1779.4257526000147,1779.4453298000153,1779.4453298000153,1779.4453298000153,1779.4453298000153,1779.4453298000153,1779.4453298000153,1785.0983856999956,['l'],1,[5.6383981999824755],[None],1785.0991540999967,1785.1118147000088,1785.1118147000088,1785.1118147000088,1787.929377499997,4,2.8137841999996454,4,2.8137841999996454,,,,,,,,sub92_AB,001,2026-01-29_22h02.46.526,recognitionstage,,2025.1.1,59.59429396358039,2026-01-29 22h03.21.241279 +0530,
,,,28,28,0,4,frames\Vid4_EM_T.png,frames\Vid4_L.png,['l'],0,[13.271672000002582],[None],4,1.7970899000065401,,,,,0,28,28,3,1787.9960776999942,,26,Male,Right handed,Corrected to normal,,,,,,,,,,,,,,,,,,,,,,,,,,,,,,,,,,,,,,,,1787.973487500014,1787.9960776999942,1787.9960776999942,1787.9960776999942,1787.9960776999942,1787.9960776999942,1787.9960776999942,1801.2815669999982,['l'],0,[13.271672000002582],[None],1801.2826072000025,1801.2949853000173,1801.2949853000173,1801.2949853000173,1803.0957149000023,4,1.7970899000065401,4,1.7970899000065401,,,,,,,,sub92_AB,001,2026-01-29_22h02.46.526,recognitionstage,,2025.1.1,59.59429396358039,2026-01-29 22h03.21.241279 +0530,
,,,29,29,0,19,frames\Vid19_BB_T.png,frames\Vid19_L.png,['r'],1,[3.3668463000212796],[None],4,1.0142552999895997,,,,,0,29,29,18,1803.1167697999917,,26,Male,Right handed,Corrected to normal,,,,,,,,,,,,,,,,,,,,,,,,,,,,,,,,,,,,,,,,1803.1061129000154,1803.1167697999917,1803.1167697999917,1803.1167697999917,1803.1167697999917,1803.1167697999917,1803.1167697999917,1806.4976514000155,['r'],1,[3.3668463000212796],[None],1806.4988453999977,1806.5121377000178,1806.5121377000178,1806.5121377000178,1807.5289378000016,4,1.0142552999895997,4,1.0142552999895997,,,,,,,,sub92_AB,001,2026-01-29_22h02.46.526,recognitionstage,,2025.1.1,59.59429396358039,2026-01-29 22h03.21.241279 +0530,
,,,30,30,0,14,frames\Vid14_BB_T.png,frames\Vid14_L.png,['l'],1,[4.256358099984936],[None],2,2.0643541000026744,,,,,0,30,30,13,1807.5792800000054,,26,Male,Right handed,Corrected to normal,,,,,,,,,,,,,,,,,,,,,,,,,,,,,,,,,,,,,,,,1807.5728812000016,1807.5792800000054,1807.5792800000054,1807.5792800000054,1807.5792800000054,1807.5792800000054,1807.5792800000054,1811.8475544000103,['l'],1,[4.256358099984936],[None],1811.8487352000084,1811.8621480000147,1811.8621480000147,1811.8621480000147,1813.9296550000145,2,2.0643541000026744,2,2.0643541000026744,,,,,,,,sub92_AB,001,2026-01-29_22h02.46.526,recognitionstage,,2025.1.1,59.59429396358039,2026-01-29 22h03.21.241279 +0530,
,,,31,31,0,17,frames\Vid17_BB_T.png,frames\Vid17_L.png,['l'],1,[5.534511299978476],[None],2,1.2140068000007886,,,,,0,31,31,16,1813.9651046000072,,26,Male,Right handed,Corrected to normal,,,,,,,,,,,,,,,,,,,,,,,,,,,,,,,,,,,,,,,,1813.9548395000165,1813.9651046000072,1813.9651046000072,1813.9651046000072,1813.9651046000072,1813.9651046000072,1813.9651046000072,1819.5146334000165,['l'],1,[5.534511299978476],[None],1819.5156815999944,1819.5285747000016,1819.5285747000016,1819.5285747000016,1820.7465311000124,2,1.2140068000007886,2,1.2140068000007886,,,,,,,,sub92_AB,001,2026-01-29_22h02.46.526,recognitionstage,,2025.1.1,59.59429396358039,2026-01-29 22h03.21.241279 +0530,
,,,32,32,0,36,frames\Vid36_BB_T.png,frames\Vid36_L.png,['r'],1,[2.6555274999991525],[None],4,1.6488856000069063,,,,,0,32,32,35,1820.7800422,,26,Male,Right handed,Corrected to normal,,,,,,,,,,,,,,,,,,,,,,,,,,,,,,,,,,,,,,,,1820.7584839999909,1820.7800422,1820.7800422,1820.7800422,1820.7800422,1820.7800422,1820.7800422,1823.4467254999909,['r'],1,[2.6555274999991525],[None],1823.4475795000035,1823.462285799993,1823.462285799993,1823.462285799993,1825.112867399992,4,1.6488856000069063,4,1.6488856000069063,,,,,,,,sub92_AB,001,2026-01-29_22h02.46.526,recognitionstage,,2025.1.1,59.59429396358039,2026-01-29 22h03.21.241279 +0530,
,,,33,33,0,16,frames\Vid16_EM_T.png,frames\Vid16_L.png,['l'],0,[6.097016199986683],[None],1,2.330881500005489,,,,,0,33,33,15,1825.1626484000008,,26,Male,Right handed,Corrected to normal,,,,,,,,,,,,,,,,,,,,,,,,,,,,,,,,,,,,,,,,1825.1518915999914,1825.1626484000008,1825.1626484000008,1825.1626484000008,1825.1626484000008,1825.1626484000008,1825.1626484000008,1831.264145299996,['l'],0,[6.097016199986683],[None],1831.2652418999933,1831.278898199991,1831.278898199991,1831.278898199991,1833.6135252999957,1,2.330881500005489,1,2.330881500005489,,,,,,,,sub92_AB,001,2026-01-29_22h02.46.526,recognitionstage,,2025.1.1,59.59429396358039,2026-01-29 22h03.21.241279 +0530,
,,,34,34,0,26,frames\Vid26_EM_T.png,frames\Vid26_L.png,['r'],1,[2.9236548999906518],[None],5,1.5639713999989908,,,,,0,34,34,25,1833.6480095000006,,26,Male,Right handed,Corrected to normal,,,,,,,,,,,,,,,,,,,,,,,,,,,,,,,,,,,,,,,,1833.6298304999946,1833.6480095000006,1833.6480095000006,1833.6480095000006,1833.6480095000006,1833.6480095000006,1833.6480095000006,1836.5810315000126,['r'],1,[2.9236548999906518],[None],1836.582101900014,1836.595791300002,1836.595791300002,1836.595791300002,1838.1632492000062,5,1.5639713999989908,5,1.5639713999989908,,,,,,,,sub92_AB,001,2026-01-29_22h02.46.526,recognitionstage,,2025.1.1,59.59429396358039,2026-01-29 22h03.21.241279 +0530,
,,,35,35,0,20,frames\Vid20_EM_T.png,frames\Vid20_L.png,['l'],1,[4.0549863999767695],[None],5,1.5645627000194509,,,,,0,35,35,19,1838.1806604000158,,26,Male,Right handed,Corrected to normal,,,,,,,,,,,,,,,,,,,,,,,,,,,,,,,,,,,,,,,,1838.1696757000173,1838.1806604000158,1838.1806604000158,1838.1806604000158,1838.1806604000158,1838.1806604000158,1838.1806604000158,1842.247458800004,['l'],1,[4.0549863999767695],[None],1842.2486879999924,1842.2624577000097,1842.2624577000097,1842.2624577000097,1843.8301172000065,5,1.5645627000194509,5,1.5645627000194509,,,,,,,,sub92_AB,001,2026-01-29_22h02.46.526,recognitionstage,,2025.1.1,59.59429396358039,2026-01-29 22h03.21.241279 +0530,
,,,36,36,0,2,frames\Vid2_BB_T.png,frames\Vid2_L.png,['l'],1,[4.844738900021184],[None],5,2.330909700016491,,,,,0,36,36,1,1843.8789147000061,,26,Male,Right handed,Corrected to normal,,,,,,,,,,,,,,,,,,,,,,,,,,,,,,,,,,,,,,,,1843.8704668999999,1843.8789147000061,1843.8789147000061,1843.8789147000061,1843.8789147000061,1843.8789147000061,1843.8789147000061,1848.7310283000115,['l'],1,[4.844738900021184],[None],1848.7321568999905,1848.7450598000141,1848.7450598000141,1848.7450598000141,1851.0790799999959,5,2.330909700016491,5,2.330909700016491,,,,,,,,sub92_AB,001,2026-01-29_22h02.46.526,recognitionstage,,2025.1.1,59.59429396358039,2026-01-29 22h03.21.241279 +0530,
,,,37,37,0,31,frames\Vid31_EM_T.png,frames\Vid31_L.png,['l'],1,[2.967205799999647],[None],5,1.5973857999779284,,,,,0,37,37,30,1851.1004288000113,,26,Male,Right handed,Corrected to normal,,,,,,,,,,,,,,,,,,,,,,,,,,,,,,,,,,,,,,,,1851.0898315999948,1851.1004288000113,1851.1004288000113,1851.1004288000113,1851.1004288000113,1851.1004288000113,1851.1004288000113,1854.0808954999957,['l'],1,[2.967205799999647],[None],1854.081954399997,1854.0955515000096,1854.0955515000096,1854.0955515000096,1855.6966422999976,5,1.5973857999779284,5,1.5973857999779284,,,,,,,,sub92_AB,001,2026-01-29_22h02.46.526,recognitionstage,,2025.1.1,59.59429396358039,2026-01-29 22h03.21.241279 +0530,
,,,38,38,0,39,frames\Vid39_BB_T.png,frames\Vid39_L.png,['r'],1,[4.242287700006273],[None],3,2.565102599997772,,,,,0,38,38,38,1855.713497299992,,26,Male,Right handed,Corrected to normal,,,,,,,,,,,,,,,,,,,,,,,,,,,,,,,,,,,,,,,,1855.7047250000178,1855.713497299992,1855.713497299992,1855.713497299992,1855.713497299992,1855.713497299992,1855.713497299992,1859.964816599997,['r'],1,[4.242287700006273],[None],1859.965881800017,1859.9786025999929,1859.9786025999929,1859.9786025999929,1862.546038600005,3,2.565102599997772,3,2.565102599997772,,,,,,,,sub92_AB,001,2026-01-29_22h02.46.526,recognitionstage,,2025.1.1,59.59429396358039,2026-01-29 22h03.21.241279 +0530,
,,,39,39,0,40,frames\Vid40_EM_T.png,frames\Vid40_L.png,['l'],0,[5.055420199991204],[None],2,2.3666687999793794,,,,,0,39,39,39,1862.5641739999992,,26,Male,Right handed,Corrected to normal,,,,,,,,,,,,,,,,,,,,,,,,,,,,,,,,,,,,,,,,1862.5543594000046,1862.5641739999992,1862.5641739999992,1862.5641739999992,1862.5641739999992,1862.5641739999992,1862.5641739999992,1867.6302431999939,['l'],0,[5.055420199991204],[None],1867.6309802999895,1867.6450254000083,1867.6450254000083,1867.6450254000083,1870.012719099992,2,2.3666687999793794,2,2.3666687999793794,,,,,,,,sub92_AB,001,2026-01-29_22h02.46.526,recognitionstage,,2025.1.1,59.59429396358039,2026-01-29 22h03.21.241279 +0530,
,,,,,,,,,,,,,,,,,,,,,,,,,26,Male,Right handed,Corrected to normal,,,,,,,,,,,,,,,,,,,,,,,,,,,,,,,,,,,,,,,,,,,,,,,,,,,,,,,,,,,,,1870.0128380999959,1870.029383599991,1870.029383599991,1874.5812176000036,space,4.534569499985082,None,sub92_AB,001,2026-01-29_22h02.46.526,recognitionstage,,2025.1.1,59.59429396358039,2026-01-29 22h03.21.241279 +0530,
