path,duration,is_repeat,thisN,thisTrialN,thisRepN,movie_id,target_img,lure_img,resp.keys,resp.corr,resp.rt,resp.duration,conf_radio.response,conf_radio.rt,movie.thisRepN,movie.thisTrialN,movie.thisN,movie.thisIndex,recogloop.thisRepN,recogloop.thisTrialN,recogloop.thisN,recogloop.thisIndex,thisRow.t,notes,age,gender,handedness,vision,caffeine_2h,alcohol_smoke_12h,demographics.started,demographics.stopped,Instructions.started,text1.started,key_resp.started,Instructions.stopped,key_resp.keys,key_resp.rt,key_resp.duration,instruction_2.started,text2.started,key_resp_2.started,instruction_2.stopped,key_resp_2.keys,key_resp_2.rt,key_resp_2.duration,Videos.started,movie_2.started,vigilance_resp.started,movie_2.stopped,Videos.stopped,movie.vigilance_resp.keys,vigilance_pressed,vigilance_correct,ISI.started,text.started,ISI.stopped,text.stopped,movie.vigilance_resp.rt,movie.vigilance_resp.duration,recognition.started,text_4.started,key_resp_3.started,recognition.stopped,key_resp_3.keys,key_resp_3.rt,key_resp_3.duration,recognition_task.started,leftimage.started,rightimage.started,resp.started,frames_question.started,right_label.started,left_label.started,recognition_task.stopped,recogloop.resp.keys,recogloop.resp.corr,recogloop.resp.rt,recogloop.resp.duration,confidence.started,conf_text.started,conf_radio.started,conf_label.started,confidence.stopped,recogloop.conf_radio.response,recogloop.conf_radio.rt,confidence,confidence_rt,thank_you.started,text_6.started,key_resp_4.started,text_6.stopped,key_resp_4.stopped,thank_you.stopped,key_resp_4.keys,participant,session,date,expName,expVersion,psychopyVersion,frameRate,expStart,...105
,,,,,,,,,,,,,,,,,,,,,,,,,20,Female,Right handed,Corrected to normal,Caffeine consumed in last 2 hours?,Alcohol or smoking in last 12 hours?,0.014235599985113367,0.016666100011207163,,,,,,,,,,,,,,,,,,,,,,,,,,,,,,,,,,,,,,,,,,,,,,,,,,,,,,,,,,,,,,,,sub90_AB,001,2026-01-29_19h34.57.480,recognitionstage,,2025.1.1,60.18085550390659,2026-01-29 19h35.55.831824 +0530,
,,,,,,,,,,,,,,,,,,,,,,,,,20,Female,Right handed,Corrected to normal,,,,,0.016687900002580136,0.033240599994314834,0.033240599994314834,10.067972399992868,space,10.027769900014391,None,,,,,,,,,,,,,,,,,,,,,,,,,,,,,,,,,,,,,,,,,,,,,,,,,,,,,,,,,sub90_AB,001,2026-01-29_19h34.57.480,recognitionstage,,2025.1.1,60.18085550390659,2026-01-29 19h35.55.831824 +0530,
,,,,,,,,,,,,,,,,,,,,,,,,,20,Female,Right handed,Corrected to normal,,,,,,,,,,,,10.068030900001759,10.082557299989276,10.082557299989276,18.10309910000069,space,8.01056399999652,None,,,,,,,,,,,,,,,,,,,,,,,,,,,,,,,,,,,,,,,,,,,,,,,,,,sub90_AB,001,2026-01-29_19h34.57.480,recognitionstage,,2025.1.1,60.18085550390659,2026-01-29 19h35.55.831824 +0530,
abrupt_videos\abrupt_10.mp4,39,0,44,44,0,,,,,,,,,,0,44,44,11,,,,,1489.5327618999872,,20,Female,Right handed,Corrected to normal,,,,,,,,,,,,,,,,,,,1489.4741846999968,1489.5327618999872,1489.5327618999872,1529.0652255000023,1528.9096550999966,None,0,1,1529.0462916000106,1529.0652255000023,1531.5524742999987,1489.5327618999872,3.379791600018507,None,1531.5525728999928,1531.567857099988,1531.567857099988,1557.901768199983,space,26.333446999982698,None,,,,,,,,,,,,,,,,,,,,,,,,,,,,,sub90_AB,001,2026-01-29_19h34.57.480,recognitionstage,,2025.1.1,60.18085550390659,2026-01-29 19h35.55.831824 +0530,
,,,0,0,0,30,frames\Vid30_EM_T.png,frames\Vid30_L.png,['r'],1,[4.82589849998476],[None],5,8.863944200013066,,,,,0,0,0,29,1557.93159990001,,20,Female,Right handed,Corrected to normal,,,,,,,,,,,,,,,,,,,,,,,,,,,,,,,,,,,,,,,,1557.9217795000004,1557.93159990001,1557.93159990001,1557.93159990001,1557.93159990001,1557.93159990001,1557.93159990001,1562.7688597000088,['r'],1,[4.82589849998476],[None],1562.7701483999845,1562.7977775000036,1562.7977775000036,1562.7977775000036,1571.650470099994,5,8.863944200013066,5,8.863944200013066,,,,,,,,sub90_AB,001,2026-01-29_19h34.57.480,recognitionstage,,2025.1.1,60.18085550390659,2026-01-29 19h35.55.831824 +0530,
,,,1,1,0,29,frames\Vid29_BB_T.png,frames\Vid29_L.png,['l'],1,[4.283556999987923],[None],5,1.7628723999951035,,,,,0,1,1,28,1571.6817642000096,,20,Female,Right handed,Corrected to normal,,,,,,,,,,,,,,,,,,,,,,,,,,,,,,,,,,,,,,,,1571.6658072999853,1571.6817642000096,1571.6817642000096,1571.6817642000096,1571.6817642000096,1571.6817642000096,1571.6817642000096,1575.9699951999937,['l'],1,[4.283556999987923],[None],1575.9713462000072,1575.9828877999971,1575.9828877999971,1575.9828877999971,1577.7499085000018,5,1.7628723999951035,5,1.7628723999951035,,,,,,,,sub90_AB,001,2026-01-29_19h34.57.480,recognitionstage,,2025.1.1,60.18085550390659,2026-01-29 19h35.55.831824 +0530,
,,,2,2,0,16,frames\Vid16_EM_T.png,frames\Vid16_L.png,['r'],1,[6.236855300026946],[None],5,1.3647982999973465,,,,,0,2,2,15,1577.8003687000019,,20,Female,Right handed,Corrected to normal,,,,,,,,,,,,,,,,,,,,,,,,,,,,,,,,,,,,,,,,1577.787882100005,1577.8003687000019,1577.8003687000019,1577.8003687000019,1577.8003687000019,1577.8003687000019,1577.8003687000019,1584.051954800001,['r'],1,[6.236855300026946],[None],1584.0529936999956,1584.0661007000017,1584.0661007000017,1584.0661007000017,1585.4336563000106,5,1.3647982999973465,5,1.3647982999973465,,,,,,,,sub90_AB,001,2026-01-29_19h34.57.480,recognitionstage,,2025.1.1,60.18085550390659,2026-01-29 19h35.55.831824 +0530,
,,,3,3,0,13,frames\Vid13_BB_T.png,frames\Vid13_L.png,['l'],1,[9.018692599987844],[None],3,3.3978951000026427,,,,,0,3,3,12,1585.4985591000004,,20,Female,Right handed,Corrected to normal,,,,,,,,,,,,,,,,,,,,,,,,,,,,,,,,,,,,,,,,1585.4782529000076,1585.4985591000004,1585.4985591000004,1585.4985591000004,1585.4985591000004,1585.4985591000004,1585.4985591000004,1594.518805300002,['l'],1,[9.018692599987844],[None],1594.5199953999836,1594.5327434999926,1594.5327434999926,1594.5327434999926,1597.9332152999996,3,3.3978951000026427,3,3.3978951000026427,,,,,,,,sub90_AB,001,2026-01-29_19h34.57.480,recognitionstage,,2025.1.1,60.18085550390659,2026-01-29 19h35.55.831824 +0530,
,,,4,4,0,17,frames\Vid17_BB_T.png,frames\Vid17_L.png,['r'],1,[2.748061799997231],[None],5,2.2474436000047717,,,,,0,4,4,16,1597.969156600011,,20,Female,Right handed,Corrected to normal,,,,,,,,,,,,,,,,,,,,,,,,,,,,,,,,,,,,,,,,1597.9572543000104,1597.969156600011,1597.969156600011,1597.969156600011,1597.969156600011,1597.969156600011,1597.969156600011,1600.7190604000061,['r'],1,[2.748061799997231],[None],1600.7198805999942,1600.7327253999829,1600.7327253999829,1600.7327253999829,1602.983773999993,5,2.2474436000047717,5,2.2474436000047717,,,,,,,,sub90_AB,001,2026-01-29_19h34.57.480,recognitionstage,,2025.1.1,60.18085550390659,2026-01-29 19h35.55.831824 +0530,
,,,5,5,0,6,frames\Vid6_BB_T.png,frames\Vid6_L.png,['l'],1,[4.4343589000054635],[None],5,1.3479503999988083,,,,,0,5,5,5,1603.0347977000056,,20,Female,Right handed,Corrected to normal,,,,,,,,,,,,,,,,,,,,,,,,,,,,,,,,,,,,,,,,1603.026055800001,1603.0347977000056,1603.0347977000056,1603.0347977000056,1603.0347977000056,1603.0347977000056,1603.0347977000056,1607.485510700004,['l'],1,[4.4343589000054635],[None],1607.486713499995,1607.499439999985,1607.499439999985,1607.499439999985,1608.8507313999871,5,1.3479503999988083,5,1.3479503999988083,,,,,,,,sub90_AB,001,2026-01-29_19h34.57.480,recognitionstage,,2025.1.1,60.18085550390659,2026-01-29 19h35.55.831824 +0530,
,,,6,6,0,9,frames\Vid9_EM_T.png,frames\Vid9_L.png,['l'],1,[3.6939990000100806],[None],5,1.4475441999966279,,,,,0,6,6,8,1608.9033734000113,,20,Female,Right handed,Corrected to normal,,,,,,,,,,,,,,,,,,,,,,,,,,,,,,,,,,,,,,,,1608.8882610999863,1608.9033734000113,1608.9033734000113,1608.9033734000113,1608.9033734000113,1608.9033734000113,1608.9033734000113,1612.6022550000052,['l'],1,[3.6939990000100806],[None],1612.603398200008,1612.6165017999883,1612.6165017999883,1612.6165017999883,1614.0667022999842,5,1.4475441999966279,5,1.4475441999966279,,,,,,,,sub90_AB,001,2026-01-29_19h34.57.480,recognitionstage,,2025.1.1,60.18085550390659,2026-01-29 19h35.55.831824 +0530,
,,,7,7,0,1,frames\Vid1_EM_T.png,frames\Vid1_L.png,['l'],1,[3.3656170000031125],[None],5,1.2817938999796752,,,,,0,7,7,0,1614.1358020000043,,20,Female,Right handed,Corrected to normal,,,,,,,,,,,,,,,,,,,,,,,,,,,,,,,,,,,,,,,,1614.1105801000085,1614.1358020000043,1614.1358020000043,1614.1358020000043,1614.1358020000043,1614.1358020000043,1614.1358020000043,1617.5018733000034,['l'],1,[3.3656170000031125],[None],1617.5029077999934,1617.5166975999891,1617.5166975999891,1617.5166975999891,1618.8002140999888,5,1.2817938999796752,5,1.2817938999796752,,,,,,,,sub90_AB,001,2026-01-29_19h34.57.480,recognitionstage,,2025.1.1,60.18085550390659,2026-01-29 19h35.55.831824 +0530,
,,,8,8,0,33,frames\Vid33_BB_T.png,frames\Vid33_L.png,['l'],1,[3.263661500008311],[None],5,1.0831844000204,,,,,0,8,8,32,1618.8215744000045,,20,Female,Right handed,Corrected to normal,,,,,,,,,,,,,,,,,,,,,,,,,,,,,,,,,,,,,,,,1618.8095182999969,1618.8215744000045,1618.8215744000045,1618.8215744000045,1618.8215744000045,1618.8215744000045,1618.8215744000045,1622.1010626000061,['l'],1,[3.263661500008311],[None],1622.1018084000098,1622.1165295999963,1622.1165295999963,1622.1165295999963,1623.2000038999831,5,1.0831844000204,5,1.0831844000204,,,,,,,,sub90_AB,001,2026-01-29_19h34.57.480,recognitionstage,,2025.1.1,60.18085550390659,2026-01-29 19h35.55.831824 +0530,
,,,9,9,0,7,frames\Vid7_EM_T.png,frames\Vid7_L.png,['l'],1,[4.10729009998613],[None],5,1.1652138000063132,,,,,0,9,9,6,1623.2499463999993,,20,Female,Right handed,Corrected to normal,,,,,,,,,,,,,,,,,,,,,,,,,,,,,,,,,,,,,,,,1623.2412885999947,1623.2499463999993,1623.2499463999993,1623.2499463999993,1623.2499463999993,1623.2499463999993,1623.2499463999993,1627.3684136999946,['l'],1,[4.10729009998613],[None],1627.369281899999,1627.3828574999934,1627.3828574999934,1627.3828574999934,1628.549934699986,5,1.1652138000063132,5,1.1652138000063132,,,,,,,,sub90_AB,001,2026-01-29_19h34.57.480,recognitionstage,,2025.1.1,60.18085550390659,2026-01-29 19h35.55.831824 +0530,
,,,10,10,0,23,frames\Vid23_EM_T.png,frames\Vid23_L.png,['l'],1,[3.4678546999930404],[None],5,1.5974216000176966,,,,,0,10,10,22,1628.5853437999904,,20,Female,Right handed,Corrected to normal,,,,,,,,,,,,,,,,,,,,,,,,,,,,,,,,,,,,,,,,1628.5640529000084,1628.5853437999904,1628.5853437999904,1628.5853437999904,1628.5853437999904,1628.5853437999904,1628.5853437999904,1632.069392800011,['l'],1,[3.4678546999930404],[None],1632.0704843999993,1632.0828565999982,1632.0828565999982,1632.0828565999982,1633.6832873999956,5,1.5974216000176966,5,1.5974216000176966,,,,,,,,sub90_AB,001,2026-01-29_19h34.57.480,recognitionstage,,2025.1.1,60.18085550390659,2026-01-29 19h35.55.831824 +0530,
,,,11,11,0,14,frames\Vid14_BB_T.png,frames\Vid14_L.png,['l'],1,[3.3345931000076234],[None],5,1.2151126000098884,,,,,0,11,11,13,1633.7506894000107,,20,Female,Right handed,Corrected to normal,,,,,,,,,,,,,,,,,,,,,,,,,,,,,,,,,,,,,,,,1633.7291984999902,1633.7506894000107,1633.7506894000107,1633.7506894000107,1633.7506894000107,1633.7506894000107,1633.7506894000107,1637.1015451999847,['l'],1,[3.3345931000076234],[None],1637.1021965999971,1637.1163814000029,1637.1163814000029,1637.1163814000029,1638.333650399989,5,1.2151126000098884,5,1.2151126000098884,,,,,,,,sub90_AB,001,2026-01-29_19h34.57.480,recognitionstage,,2025.1.1,60.18085550390659,2026-01-29 19h35.55.831824 +0530,
,,,12,12,0,27,frames\Vid27_BB_T.png,frames\Vid27_L.png,['l'],1,[3.899443299975246],[None],4,5.381567499978701,,,,,0,12,12,26,1638.3538142000034,,20,Female,Right handed,Corrected to normal,,,,,,,,,,,,,,,,,,,,,,,,,,,,,,,,,,,,,,,,1638.3419206999824,1638.3538142000034,1638.3538142000034,1638.3538142000034,1638.3538142000034,1638.3538142000034,1638.3538142000034,1642.2682243000017,['l'],1,[3.899443299975246],[None],1642.2690942999907,1642.2827105000033,1642.2827105000033,1642.2827105000033,1647.6673631999874,4,5.381567499978701,4,5.381567499978701,,,,,,,,sub90_AB,001,2026-01-29_19h34.57.480,recognitionstage,,2025.1.1,60.18085550390659,2026-01-29 19h35.55.831824 +0530,
,,,13,13,0,36,frames\Vid36_BB_T.png,frames\Vid36_L.png,['l'],1,[7.353448500012746],[None],5,0.966190999984974,,,,,0,13,13,35,1647.699827000004,,20,Female,Right handed,Corrected to normal,,,,,,,,,,,,,,,,,,,,,,,,,,,,,,,,,,,,,,,,1647.6802427000075,1647.699827000004,1647.699827000004,1647.699827000004,1647.699827000004,1647.699827000004,1647.699827000004,1655.0673419999948,['l'],1,[7.353448500012746],[None],1655.0680420999997,1655.0832194999966,1655.0832194999966,1655.0832194999966,1656.0507667000056,5,0.966190999984974,5,0.966190999984974,,,,,,,,sub90_AB,001,2026-01-29_19h34.57.480,recognitionstage,,2025.1.1,60.18085550390659,2026-01-29 19h35.55.831824 +0530,
,,,14,14,0,21,frames\Vid21_BB_T.png,frames\Vid21_L.png,['r'],1,[6.1222276000189595],[None],3,2.9152069999836385,,,,,0,14,14,20,1656.0829840000079,,20,Female,Right handed,Corrected to normal,,,,,,,,,,,,,,,,,,,,,,,,,,,,,,,,,,,,,,,,1656.0645879000076,1656.0829840000079,1656.0829840000079,1656.0829840000079,1656.0829840000079,1656.0829840000079,1656.0829840000079,1662.21838820001,['r'],1,[6.1222276000189595],[None],1662.219473300007,1662.2332773999951,1662.2332773999951,1662.2332773999951,1665.1501373999927,3,2.9152069999836385,3,2.9152069999836385,,,,,,,,sub90_AB,001,2026-01-29_19h34.57.480,recognitionstage,,2025.1.1,60.18085550390659,2026-01-29 19h35.55.831824 +0530,
,,,15,15,0,2,frames\Vid2_BB_T.png,frames\Vid2_L.png,['l'],1,[4.5086582000076305],[None],5,1.5643206000095233,,,,,0,15,15,1,1665.200672100007,,20,Female,Right handed,Corrected to normal,,,,,,,,,,,,,,,,,,,,,,,,,,,,,,,,,,,,,,,,1665.1896086999914,1665.200672100007,1665.200672100007,1665.200672100007,1665.200672100007,1665.200672100007,1665.200672100007,1669.7190138000005,['l'],1,[4.5086582000076305],[None],1669.7200752999925,1669.7329133999883,1669.7329133999883,1669.7329133999883,1671.3002478999842,5,1.5643206000095233,5,1.5643206000095233,,,,,,,,sub90_AB,001,2026-01-29_19h34.57.480,recognitionstage,,2025.1.1,60.18085550390659,2026-01-29 19h35.55.831824 +0530,
,,,16,16,0,38,frames\Vid38_EM_T.png,frames\Vid38_L.png,['l'],1,[13.493273600004613],[None],5,1.8982052999781445,,,,,0,16,16,37,1671.3359104999981,,20,Female,Right handed,Corrected to normal,,,,,,,,,,,,,,,,,,,,,,,,,,,,,,,,,,,,,,,,1671.3108332999982,1671.3359104999981,1671.3359104999981,1671.3359104999981,1671.3359104999981,1671.3359104999981,1671.3359104999981,1684.8345036999963,['l'],1,[13.493273600004613],[None],1684.8356496999913,1684.8501299000054,1684.8501299000054,1684.8501299000054,1686.750927999994,5,1.8982052999781445,5,1.8982052999781445,,,,,,,,sub90_AB,001,2026-01-29_19h34.57.480,recognitionstage,,2025.1.1,60.18085550390659,2026-01-29 19h35.55.831824 +0530,
,,,17,17,0,37,frames\Vid37_BB_T.png,frames\Vid37_L.png,['r'],1,[2.510557500005234],[None],5,4.880854499991983,,,,,0,17,17,36,1686.7827874000068,,20,Female,Right handed,Corrected to normal,,,,,,,,,,,,,,,,,,,,,,,,,,,,,,,,,,,,,,,,1686.7645686999895,1686.7827874000068,1686.7827874000068,1686.7827874000068,1686.7827874000068,1686.7827874000068,1686.7827874000068,1689.3018572999863,['r'],1,[2.510557500005234],[None],1689.3028734999825,1689.3161772000021,1689.3161772000021,1689.3161772000021,1694.2010370999924,5,4.880854499991983,5,4.880854499991983,,,,,,,,sub90_AB,001,2026-01-29_19h34.57.480,recognitionstage,,2025.1.1,60.18085550390659,2026-01-29 19h35.55.831824 +0530,
,,,18,18,0,10,frames\Vid10_BB_T.png,frames\Vid10_L.png,['l'],1,[2.0821285999845713],[None],5,1.8137428000045475,,,,,0,18,18,9,1694.267108800006,,20,Female,Right handed,Corrected to normal,,,,,,,,,,,,,,,,,,,,,,,,,,,,,,,,,,,,,,,,1694.2446725000045,1694.267108800006,1694.267108800006,1694.267108800006,1694.267108800006,1694.267108800006,1694.267108800006,1696.3523450999928,['l'],1,[2.0821285999845713],[None],1696.3534586000023,1696.3661670000001,1696.3661670000001,1696.3661670000001,1698.1845615000057,5,1.8137428000045475,5,1.8137428000045475,,,,,,,,sub90_AB,001,2026-01-29_19h34.57.480,recognitionstage,,2025.1.1,60.18085550390659,2026-01-29 19h35.55.831824 +0530,
,,,19,19,0,15,frames\Vid15_BB_T.png,frames\Vid15_L.png,['r'],1,[3.807751800020924],[None],5,1.5135397000121884,,,,,0,19,19,14,1698.253530099988,,20,Female,Right handed,Corrected to normal,,,,,,,,,,,,,,,,,,,,,,,,,,,,,,,,,,,,,,,,1698.2349842000112,1698.253530099988,1698.253530099988,1698.253530099988,1698.253530099988,1698.253530099988,1698.253530099988,1702.0692328999867,['r'],1,[3.807751800020924],[None],1702.0704897000105,1702.082827300008,1702.082827300008,1702.082827300008,1703.6004558999848,5,1.5135397000121884,5,1.5135397000121884,,,,,,,,sub90_AB,001,2026-01-29_19h34.57.480,recognitionstage,,2025.1.1,60.18085550390659,2026-01-29 19h35.55.831824 +0530,
,,,20,20,0,39,frames\Vid39_BB_T.png,frames\Vid39_L.png,['l'],1,[5.609486500005005],[None],5,1.830527299985988,,,,,0,20,20,38,1703.6359984999872,,20,Female,Right handed,Corrected to normal,,,,,,,,,,,,,,,,,,,,,,,,,,,,,,,,,,,,,,,,1703.6111534000083,1703.6359984999872,1703.6359984999872,1703.6359984999872,1703.6359984999872,1703.6359984999872,1703.6359984999872,1709.2528528999828,['l'],1,[5.609486500005005],[None],1709.25384759999,1709.2661537000095,1709.2661537000095,1709.2661537000095,1711.1005752999918,5,1.830527299985988,5,1.830527299985988,,,,,,,,sub90_AB,001,2026-01-29_19h34.57.480,recognitionstage,,2025.1.1,60.18085550390659,2026-01-29 19h35.55.831824 +0530,
,,,21,21,0,35,frames\Vid35_EM_T.png,frames\Vid35_L.png,['l'],1,[3.582912799989572],[None],5,0.7308331000094768,,,,,0,21,21,34,1711.1184021999943,,20,Female,Right handed,Corrected to normal,,,,,,,,,,,,,,,,,,,,,,,,,,,,,,,,,,,,,,,,1711.1091089999827,1711.1184021999943,1711.1184021999943,1711.1184021999943,1711.1184021999943,1711.1184021999943,1711.1184021999943,1714.7022335999936,['l'],1,[3.582912799989572],[None],1714.7033749999828,1714.7165773999877,1714.7165773999877,1714.7165773999877,1715.4504978999903,5,0.7308331000094768,5,0.7308331000094768,,,,,,,,sub90_AB,001,2026-01-29_19h34.57.480,recognitionstage,,2025.1.1,60.18085550390659,2026-01-29 19h35.55.831824 +0530,
,,,22,22,0,22,frames\Vid22_EM_T.png,frames\Vid22_L.png,['l'],1,[2.0185555000207387],[None],5,0.7462352000002284,,,,,0,22,22,21,1715.482850600005,,20,Female,Right handed,Corrected to normal,,,,,,,,,,,,,,,,,,,,,,,,,,,,,,,,,,,,,,,,1715.465420099994,1715.482850600005,1715.482850600005,1715.482850600005,1715.482850600005,1715.482850600005,1715.482850600005,1717.5031946999952,['l'],1,[2.0185555000207387],[None],1717.5046758000099,1717.531799199991,1717.531799199991,1717.531799199991,1718.267462399992,5,0.7462352000002284,5,0.7462352000002284,,,,,,,,sub90_AB,001,2026-01-29_19h34.57.480,recognitionstage,,2025.1.1,60.18085550390659,2026-01-29 19h35.55.831824 +0530,
,,,23,23,0,4,frames\Vid4_EM_T.png,frames\Vid4_L.png,['l'],0,[13.423773199989228],[None],3,1.9481080000114162,,,,,0,23,23,3,1718.3335716000001,,20,Female,Right handed,Corrected to normal,,,,,,,,,,,,,,,,,,,,,,,,,,,,,,,,,,,,,,,,1718.3149199000036,1718.3335716000001,1718.3335716000001,1718.3335716000001,1718.3335716000001,1718.3335716000001,1718.3335716000001,1731.7682043999957,['l'],0,[13.423773199989228],[None],1731.7694457999896,1731.7832329999947,1731.7832329999947,1731.7832329999947,1733.7343380000093,3,1.9481080000114162,3,1.9481080000114162,,,,,,,,sub90_AB,001,2026-01-29_19h34.57.480,recognitionstage,,2025.1.1,60.18085550390659,2026-01-29 19h35.55.831824 +0530,
,,,24,24,0,8,frames\Vid8_BB_T.png,frames\Vid8_L.png,['l'],1,[5.386925600003451],[None],4,6.781982700020308,,,,,0,24,24,7,1733.7864630999975,,20,Female,Right handed,Corrected to normal,,,,,,,,,,,,,,,,,,,,,,,,,,,,,,,,,,,,,,,,1733.775786299986,1733.7864630999975,1733.7864630999975,1733.7864630999975,1733.7864630999975,1733.7864630999975,1733.7864630999975,1739.1851508999825,['l'],1,[5.386925600003451],[None],1739.186249899998,1739.2000060999999,1739.2000060999999,1739.2000060999999,1745.9833298999874,4,6.781982700020308,4,6.781982700020308,,,,,,,,sub90_AB,001,2026-01-29_19h34.57.480,recognitionstage,,2025.1.1,60.18085550390659,2026-01-29 19h35.55.831824 +0530,
,,,25,25,0,3,frames\Vid3_BB_T.png,frames\Vid3_L.png,['r'],1,[3.48925829998916],[None],5,1.365212499978952,,,,,0,25,25,2,1746.0360693999974,,20,Female,Right handed,Corrected to normal,,,,,,,,,,,,,,,,,,,,,,,,,,,,,,,,,,,,,,,,1746.0234126999858,1746.0360693999974,1746.0360693999974,1746.0360693999974,1746.0360693999974,1746.0360693999974,1746.0360693999974,1749.5349911999947,['r'],1,[3.48925829998916],[None],1749.5361860999838,1749.549826100003,1749.549826100003,1749.549826100003,1750.9176929999958,5,1.365212499978952,5,1.365212499978952,,,,,,,,sub90_AB,001,2026-01-29_19h34.57.480,recognitionstage,,2025.1.1,60.18085550390659,2026-01-29 19h35.55.831824 +0530,
,,,26,26,0,34,frames\Vid34_BB_T.png,frames\Vid34_L.png,['r'],1,[9.412165299989283],[None],3,2.6307008000148926,,,,,0,26,26,33,1750.9371749999991,,20,Female,Right handed,Corrected to normal,,,,,,,,,,,,,,,,,,,,,,,,,,,,,,,,,,,,,,,,1750.9273948000045,1750.9371749999991,1750.9371749999991,1750.9371749999991,1750.9371749999991,1750.9371749999991,1750.9371749999991,1760.3526043999882,['r'],1,[9.412165299989283],[None],1760.353744699998,1760.3664018999843,1760.3664018999843,1760.3664018999843,1763.0005457999941,3,2.6307008000148926,3,2.6307008000148926,,,,,,,,sub90_AB,001,2026-01-29_19h34.57.480,recognitionstage,,2025.1.1,60.18085550390659,2026-01-29 19h35.55.831824 +0530,
,,,27,27,0,19,frames\Vid19_BB_T.png,frames\Vid19_L.png,['r'],1,[8.644532900012564],[None],5,0.7659357000084128,,,,,0,27,27,18,1763.0328355999955,,20,Female,Right handed,Corrected to normal,,,,,,,,,,,,,,,,,,,,,,,,,,,,,,,,,,,,,,,,1763.0133476000046,1763.0328355999955,1763.0328355999955,1763.0328355999955,1763.0328355999955,1763.0328355999955,1763.0328355999955,1771.6843265999923,['r'],1,[8.644532900012564],[None],1771.6852511999896,1771.6995070999837,1771.6995070999837,1771.6995070999837,1772.4673936000036,5,0.7659357000084128,5,0.7659357000084128,,,,,,,,sub90_AB,001,2026-01-29_19h34.57.480,recognitionstage,,2025.1.1,60.18085550390659,2026-01-29 19h35.55.831824 +0530,
,,,28,28,0,26,frames\Vid26_EM_T.png,frames\Vid26_L.png,['l'],1,[2.7456996999972034],[None],5,2.780978099995991,,,,,0,28,28,25,1772.4997841999866,,20,Female,Right handed,Corrected to normal,,,,,,,,,,,,,,,,,,,,,,,,,,,,,,,,,,,,,,,,1772.4824964999862,1772.4997841999866,1772.4997841999866,1772.4997841999866,1772.4997841999866,1772.4997841999866,1772.4997841999866,1775.2525585999829,['l'],1,[2.7456996999972034],[None],1775.2535153999925,1775.266252100002,1775.266252100002,1775.266252100002,1778.0510697999853,5,2.780978099995991,5,2.780978099995991,,,,,,,,sub90_AB,001,2026-01-29_19h34.57.480,recognitionstage,,2025.1.1,60.18085550390659,2026-01-29 19h35.55.831824 +0530,
,,,29,29,0,11,frames\Vid11_EM_T.png,frames\Vid11_L.png,['r'],1,[4.264762500009965],[None],5,1.1651768000156153,,,,,0,29,29,10,1778.1166616999835,,20,Female,Right handed,Corrected to normal,,,,,,,,,,,,,,,,,,,,,,,,,,,,,,,,,,,,,,,,1778.095084600005,1778.1166616999835,1778.1166616999835,1778.1166616999835,1778.1166616999835,1778.1166616999835,1778.1166616999835,1782.384940399992,['r'],1,[4.264762500009965],[None],1782.385899899993,1782.400197799987,1782.400197799987,1782.400197799987,1783.568306400004,5,1.1651768000156153,5,1.1651768000156153,,,,,,,,sub90_AB,001,2026-01-29_19h34.57.480,recognitionstage,,2025.1.1,60.18085550390659,2026-01-29 19h35.55.831824 +0530,
,,,30,30,0,25,frames\Vid25_BB_T.png,frames\Vid25_L.png,['r'],1,[14.730908900004579],[None],5,0.8483784999989439,,,,,0,30,30,24,1783.6024534000026,,20,Female,Right handed,Corrected to normal,,,,,,,,,,,,,,,,,,,,,,,,,,,,,,,,,,,,,,,,1783.580181199999,1783.6024534000026,1783.6024534000026,1783.6024534000026,1783.6024534000026,1783.6024534000026,1783.6024534000026,1798.3355799999845,['r'],1,[14.730908900004579],[None],1798.3367428999918,1798.350446299999,1798.350446299999,1798.350446299999,1799.2005594999937,5,0.8483784999989439,5,0.8483784999989439,,,,,,,,sub90_AB,001,2026-01-29_19h34.57.480,recognitionstage,,2025.1.1,60.18085550390659,2026-01-29 19h35.55.831824 +0530,
,,,31,31,0,24,frames\Vid24_BB_T.png,frames\Vid24_L.png,['l'],1,[3.7485478000016883],[None],5,0.9466330999857746,,,,,0,31,31,23,1799.2328769000014,,20,Female,Right handed,Corrected to normal,,,,,,,,,,,,,,,,,,,,,,,,,,,,,,,,,,,,,,,,1799.2134416000044,1799.2328769000014,1799.2328769000014,1799.2328769000014,1799.2328769000014,1799.2328769000014,1799.2328769000014,1802.9866235000081,['l'],1,[3.7485478000016883],[None],1802.9880384999851,1803.014599999995,1803.014599999995,1803.014599999995,1803.9507332000067,5,0.9466330999857746,5,0.9466330999857746,,,,,,,,sub90_AB,001,2026-01-29_19h34.57.480,recognitionstage,,2025.1.1,60.18085550390659,2026-01-29 19h35.55.831824 +0530,
,,,32,32,0,28,frames\Vid28_EM_T.png,frames\Vid28_L.png,['l'],1,[1.7906093999918085],[None],5,0.7475698000052944,,,,,0,32,32,27,1803.9829141999944,,20,Female,Right handed,Corrected to normal,,,,,,,,,,,,,,,,,,,,,,,,,,,,,,,,,,,,,,,,1803.9619212000107,1803.9829141999944,1803.9829141999944,1803.9829141999944,1803.9829141999944,1803.9829141999944,1803.9829141999944,1805.785859800002,['l'],1,[1.7906093999918085],[None],1805.7872989999887,1805.8001711000106,1805.8001711000106,1805.8001711000106,1806.5506595000043,5,0.7475698000052944,5,0.7475698000052944,,,,,,,,sub90_AB,001,2026-01-29_19h34.57.480,recognitionstage,,2025.1.1,60.18085550390659,2026-01-29 19h35.55.831824 +0530,
,,,33,33,0,32,frames\Vid32_EM_T.png,frames\Vid32_L.png,['l'],1,[1.4544997999910265],[None],5,1.8308818000077736,,,,,0,33,33,31,1806.5828676999954,,20,Female,Right handed,Corrected to normal,,,,,,,,,,,,,,,,,,,,,,,,,,,,,,,,,,,,,,,,1806.5623186999874,1806.5828676999954,1806.5828676999954,1806.5828676999954,1806.5828676999954,1806.5828676999954,1806.5828676999954,1808.0517808999866,['l'],1,[1.4544997999910265],[None],1808.05285919999,1808.0670352999878,1808.0670352999878,1808.0670352999878,1809.900964200002,5,1.8308818000077736,5,1.8308818000077736,,,,,,,,sub90_AB,001,2026-01-29_19h34.57.480,recognitionstage,,2025.1.1,60.18085550390659,2026-01-29 19h35.55.831824 +0530,
,,,34,34,0,20,frames\Vid20_EM_T.png,frames\Vid20_L.png,['l'],1,[1.239200099982554],[None],5,0.7649720999761485,,,,,0,34,34,19,1809.9180499000067,,20,Female,Right handed,Corrected to normal,,,,,,,,,,,,,,,,,,,,,,,,,,,,,,,,,,,,,,,,1809.908067899989,1809.9180499000067,1809.9180499000067,1809.9180499000067,1809.9180499000067,1809.9180499000067,1809.9180499000067,1811.1688924999908,['l'],1,[1.239200099982554],[None],1811.1697285999835,1811.1831152999948,1811.1831152999948,1811.1831152999948,1811.9501884999918,5,0.7649720999761485,5,0.7649720999761485,,,,,,,,sub90_AB,001,2026-01-29_19h34.57.480,recognitionstage,,2025.1.1,60.18085550390659,2026-01-29 19h35.55.831824 +0530,
,,,35,35,0,18,frames\Vid18_EM_T.png,frames\Vid18_L.png,['l'],1,[2.014790500019444],[None],5,0.4653658000170253,,,,,0,35,35,17,1811.9825772999902,,20,Female,Right handed,Corrected to normal,,,,,,,,,,,,,,,,,,,,,,,,,,,,,,,,,,,,,,,,1811.9610119999852,1811.9825772999902,1811.9825772999902,1811.9825772999902,1811.9825772999902,1811.9825772999902,1811.9825772999902,1814.0017660000012,['l'],1,[2.014790500019444],[None],1814.0025543000083,1814.0162761000101,1814.0162761000101,1814.0162761000101,1814.4837206999946,5,0.4653658000170253,5,0.4653658000170253,,,,,,,,sub90_AB,001,2026-01-29_19h34.57.480,recognitionstage,,2025.1.1,60.18085550390659,2026-01-29 19h35.55.831824 +0530,
,,,36,36,0,12,frames\Vid12_EM_T.png,frames\Vid12_L.png,['r'],1,[1.6077627999766264],[None],5,1.0142586999863852,,,,,0,36,36,11,1814.533546199993,,20,Female,Right handed,Corrected to normal,,,,,,,,,,,,,,,,,,,,,,,,,,,,,,,,,,,,,,,,1814.5268184999877,1814.533546199993,1814.533546199993,1814.533546199993,1814.533546199993,1814.533546199993,1814.533546199993,1816.151947700011,['r'],1,[1.6077627999766264],[None],1816.15275020001,1816.1661802000017,1816.1661802000017,1816.1661802000017,1817.184059399995,5,1.0142586999863852,5,1.0142586999863852,,,,,,,,sub90_AB,001,2026-01-29_19h34.57.480,recognitionstage,,2025.1.1,60.18085550390659,2026-01-29 19h35.55.831824 +0530,
,,,37,37,0,40,frames\Vid40_EM_T.png,frames\Vid40_L.png,['l'],1,[3.1134331000212114],[None],5,0.5303873000084423,,,,,0,37,37,39,1817.2041945999954,,20,Female,Right handed,Corrected to normal,,,,,,,,,,,,,,,,,,,,,,,,,,,,,,,,,,,,,,,,1817.1918476999854,1817.2041945999954,1817.2041945999954,1817.2041945999954,1817.2041945999954,1817.2041945999954,1817.2041945999954,1820.3190237999952,['l'],1,[3.1134331000212114],[None],1820.3203091000032,1820.3482054999913,1820.3482054999913,1820.3482054999913,1820.8678363999934,5,0.5303873000084423,5,0.5303873000084423,,,,,,,,sub90_AB,001,2026-01-29_19h34.57.480,recognitionstage,,2025.1.1,60.18085550390659,2026-01-29 19h35.55.831824 +0530,
,,,38,38,0,31,frames\Vid31_EM_T.png,frames\Vid31_L.png,['r'],1,[6.600752500002272],[None],5,0.46513499997672625,,,,,0,38,38,30,1820.8845715000061,,20,Female,Right handed,Corrected to normal,,,,,,,,,,,,,,,,,,,,,,,,,,,,,,,,,,,,,,,,1820.8765215000021,1820.8845715000061,1820.8845715000061,1820.8845715000061,1820.8845715000061,1820.8845715000061,1820.8845715000061,1827.5018538000004,['r'],1,[6.600752500002272],[None],1827.5026835000026,1827.5163718000113,1827.5163718000113,1827.5163718000113,1827.9839371999842,5,0.46513499997672625,5,0.46513499997672625,,,,,,,,sub90_AB,001,2026-01-29_19h34.57.480,recognitionstage,,2025.1.1,60.18085550390659,2026-01-29 19h35.55.831824 +0530,
,,,39,39,0,5,frames\Vid5_EM_T.png,frames\Vid5_L.png,['r'],1,[6.5644437999872025],[None],3,1.1488980000140145,,,,,0,39,39,4,1828.0330983999884,,20,Female,Right handed,Corrected to normal,,,,,,,,,,,,,,,,,,,,,,,,,,,,,,,,,,,,,,,,1828.0137991000083,1828.0330983999884,1828.0330983999884,1828.0330983999884,1828.0330983999884,1828.0330983999884,1828.0330983999884,1834.6013463999843,['r'],1,[6.5644437999872025],[None],1834.6022350999992,1834.616662299988,1834.616662299988,1834.616662299988,1835.7672701999836,3,1.1488980000140145,3,1.1488980000140145,,,,,,,,sub90_AB,001,2026-01-29_19h34.57.480,recognitionstage,,2025.1.1,60.18085550390659,2026-01-29 19h35.55.831824 +0530,
,,,,,,,,,,,,,,,,,,,,,,,,,20,Female,Right handed,Corrected to normal,,,,,,,,,,,,,,,,,,,,,,,,,,,,,,,,,,,,,,,,,,,,,,,,,,,,,,,,,,,,,1835.767386099993,1835.7839201999886,1835.7839201999886,1855.7848200000008,1855.7848200000008,1855.767466499994,None,sub90_AB,001,2026-01-29_19h34.57.480,recognitionstage,,2025.1.1,60.18085550390659,2026-01-29 19h35.55.831824 +0530,
