path,duration,is_repeat,thisN,thisTrialN,thisRepN,movie_id,target_img,lure_img,resp.keys,resp.corr,resp.rt,resp.duration,conf_radio.response,conf_radio.rt,movie.thisRepN,movie.thisTrialN,movie.thisN,movie.thisIndex,recogloop.thisRepN,recogloop.thisTrialN,recogloop.thisN,recogloop.thisIndex,thisRow.t,notes,age,gender,handedness,vision,caffeine_2h,alcohol_smoke_12h,demographics.started,demographics.stopped,Instructions.started,text1.started,key_resp.started,Instructions.stopped,key_resp.keys,key_resp.rt,key_resp.duration,instruction_2.started,text2.started,key_resp_2.started,instruction_2.stopped,key_resp_2.keys,key_resp_2.rt,key_resp_2.duration,Videos.started,movie_2.started,vigilance_resp.started,movie_2.stopped,Videos.stopped,movie.vigilance_resp.keys,vigilance_pressed,vigilance_correct,ISI.started,text.started,text.stopped,ISI.stopped,movie.vigilance_resp.rt,movie.vigilance_resp.duration,recognition.started,text_4.started,key_resp_3.started,recognition.stopped,key_resp_3.keys,key_resp_3.rt,key_resp_3.duration,recognition_task.started,leftimage.started,rightimage.started,resp.started,frames_question.started,right_label.started,left_label.started,recognition_task.stopped,recogloop.resp.keys,recogloop.resp.corr,recogloop.resp.rt,recogloop.resp.duration,confidence.started,conf_text.started,conf_radio.started,conf_label.started,confidence.stopped,recogloop.conf_radio.response,recogloop.conf_radio.rt,confidence,confidence_rt,thank_you.started,text_6.started,key_resp_4.started,thank_you.stopped,key_resp_4.keys,participant,session,date,expName,expVersion,psychopyVersion,frameRate,expStart,...103
,,,,,,,,,,,,,,,,,,,,,,,,,21,Male,Right handed,Normal,Caffeine consumed in last 2 hours?,Alcohol or smoking in last 12 hours?,0.01812889997381717,0.08104859996819869,,,,,,,,,,,,,,,,,,,,,,,,,,,,,,,,,,,,,,,,,,,,,,,,,,,,,,,,,,,,,,sub97_AB,001,2026-01-30_11h59.07.929,recognitionstage,,2025.1.1,59.93791630106484,2026-01-30 11h59.38.612480 +0530,
,,,,,,,,,,,,,,,,,,,,,,,,,21,Male,Right handed,Normal,,,,,0.08107610000297427,0.10179350001271814,0.10179350001271814,9.773644700006116,space,9.65666280000005,None,,,,,,,,,,,,,,,,,,,,,,,,,,,,,,,,,,,,,,,,,,,,,,,,,,,,,,,sub97_AB,001,2026-01-30_11h59.07.929,recognitionstage,,2025.1.1,59.93791630106484,2026-01-30 11h59.38.612480 +0530,
,,,,,,,,,,,,,,,,,,,,,,,,,21,Male,Right handed,Normal,,,,,,,,,,,,9.773743300000206,9.78929549996974,9.78929549996974,16.489299899956677,space,6.689190300006885,None,,,,,,,,,,,,,,,,,,,,,,,,,,,,,,,,,,,,,,,,,,,,,,,,sub97_AB,001,2026-01-30_11h59.07.929,recognitionstage,,2025.1.1,59.93791630106484,2026-01-30 11h59.38.612480 +0530,
abrupt_videos\abrupt_21.mp4,39,0,44,44,0,,,,,,,,,,0,44,44,23,,,,,1520.1198979999754,,21,Male,Right handed,Normal,,,,,,,,,,,,,,,,,,,1520.0755453999736,1520.1198979999754,1520.1198979999754,1560.0197135999915,1559.876181199972,None,0,1,1560.0120973999728,1560.0197135999915,1562.5208062999882,1562.5062650999753,7.733178600028623,None,1562.5063372000004,1562.5208062999882,1562.5208062999882,1581.1064088999992,space,18.574403500009794,None,,,,,,,,,,,,,,,,,,,,,,,,,,,sub97_AB,001,2026-01-30_11h59.07.929,recognitionstage,,2025.1.1,59.93791630106484,2026-01-30 11h59.38.612480 +0530,
,,,0,0,0,4,frames\Vid4_EM_T.png,frames\Vid4_L.png,['r'],0,[10.236092399980407],[None],4,11.364991199981887,,,,,0,0,0,3,1581.2024585999898,,21,Male,Right handed,Normal,,,,,,,,,,,,,,,,,,,,,,,,,,,,,,,,,,,,,,,,1581.1811439999728,1581.2024585999898,1581.2024585999898,1581.2024585999898,1581.2024585999898,1581.2024585999898,1581.2024585999898,1591.4556306999875,['r'],0,[10.236092399980407],[None],1591.4565079999738,1591.4699970000074,1591.4699970000074,1591.4699970000074,1602.8372186999768,4,11.364991199981887,4,11.364991199981887,,,,,,sub97_AB,001,2026-01-30_11h59.07.929,recognitionstage,,2025.1.1,59.93791630106484,2026-01-30 11h59.38.612480 +0530,
,,,1,1,0,8,frames\Vid8_BB_T.png,frames\Vid8_L.png,['r'],1,[4.367151400016155],[None],4,2.682913800003007,,,,,0,1,1,7,1602.9194478999707,,21,Male,Right handed,Normal,,,,,,,,,,,,,,,,,,,,,,,,,,,,,,,,,,,,,,,,1602.9128124999697,1602.9194478999707,1602.9194478999707,1602.9194478999707,1602.9194478999707,1602.9194478999707,1602.9194478999707,1607.2886246999842,['r'],1,[4.367151400016155],[None],1607.2894970999914,1607.3036412000074,1607.3036412000074,1607.3036412000074,1609.987802699965,4,2.682913800003007,4,2.682913800003007,,,,,,sub97_AB,001,2026-01-30_11h59.07.929,recognitionstage,,2025.1.1,59.93791630106484,2026-01-30 11h59.38.612480 +0530,
,,,2,2,0,15,frames\Vid15_BB_T.png,frames\Vid15_L.png,['l'],1,[6.149146799987648],[None],4,2.2975244000554085,,,,,0,2,2,14,1610.0735694000032,,21,Male,Right handed,Normal,,,,,,,,,,,,,,,,,,,,,,,,,,,,,,,,,,,,,,,,1610.0494897000026,1610.0735694000032,1610.0735694000032,1610.0735694000032,1610.0735694000032,1610.0735694000032,1610.0735694000032,1616.2236274000024,['l'],1,[6.149146799987648],[None],1616.2246125999955,1616.236624000012,1616.236624000012,1616.236624000012,1618.5375420000055,4,2.2975244000554085,4,2.2975244000554085,,,,,,sub97_AB,001,2026-01-30_11h59.07.929,recognitionstage,,2025.1.1,59.93791630106484,2026-01-30 11h59.38.612480 +0530,
,,,3,3,0,39,frames\Vid39_BB_T.png,frames\Vid39_L.png,['r'],0,[7.129621800035238],[None],3,1.7980321999639273,,,,,0,3,3,38,1618.573139199987,,21,Male,Right handed,Normal,,,,,,,,,,,,,,,,,,,,,,,,,,,,,,,,,,,,,,,,1618.5613788999617,1618.573139199987,1618.573139199987,1618.573139199987,1618.573139199987,1618.573139199987,1618.573139199987,1625.7060535000055,['r'],0,[7.129621800035238],[None],1625.7069955999614,1625.7207074000034,1625.7207074000034,1625.7207074000034,1627.521368399961,3,1.7980321999639273,3,1.7980321999639273,,,,,,sub97_AB,001,2026-01-30_11h59.07.929,recognitionstage,,2025.1.1,59.93791630106484,2026-01-30 11h59.38.612480 +0530,
,,,4,4,0,2,frames\Vid2_BB_T.png,frames\Vid2_L.png,['r'],1,[5.763412499974947],[None],4,1.448516300006304,,,,,0,4,4,1,1627.5873755000066,,21,Male,Right handed,Normal,,,,,,,,,,,,,,,,,,,,,,,,,,,,,,,,,,,,,,,,1627.5729644999956,1627.5873755000066,1627.5873755000066,1627.5873755000066,1627.5873755000066,1627.5873755000066,1627.5873755000066,1633.3557094999705,['r'],1,[5.763412499974947],[None],1633.3568475999637,1633.3704526000074,1633.3704526000074,1633.3704526000074,1634.8208259000094,4,1.448516300006304,4,1.448516300006304,,,,,,sub97_AB,001,2026-01-30_11h59.07.929,recognitionstage,,2025.1.1,59.93791630106484,2026-01-30 11h59.38.612480 +0530,
,,,5,5,0,37,frames\Vid37_BB_T.png,frames\Vid37_L.png,['l'],1,[4.65420680004172],[None],4,1.1498310000170022,,,,,0,5,5,36,1634.8565069999895,,21,Male,Right handed,Normal,,,,,,,,,,,,,,,,,,,,,,,,,,,,,,,,,,,,,,,,1634.846265900007,1634.8565069999895,1634.8565069999895,1634.8565069999895,1634.8565069999895,1634.8565069999895,1634.8565069999895,1639.521070399962,['l'],1,[4.65420680004172],[None],1639.5216831999714,1639.5371184999822,1639.5371184999822,1639.5371184999822,1640.687541799969,4,1.1498310000170022,4,1.1498310000170022,,,,,,sub97_AB,001,2026-01-30_11h59.07.929,recognitionstage,,2025.1.1,59.93791630106484,2026-01-30 11h59.38.612480 +0530,
,,,6,6,0,5,frames\Vid5_EM_T.png,frames\Vid5_L.png,['l'],1,[9.045314800052438],[None],2,2.9815842999960296,,,,,0,6,6,4,1640.737417700002,,21,Male,Right handed,Normal,,,,,,,,,,,,,,,,,,,,,,,,,,,,,,,,,,,,,,,,1640.7301853999961,1640.737417700002,1640.737417700002,1640.737417700002,1640.737417700002,1640.737417700002,1640.737417700002,1649.7885758999619,['l'],1,[9.045314800052438],[None],1649.78951589996,1649.803354899981,1649.803354899981,1649.803354899981,1652.788211999985,2,2.9815842999960296,2,2.9815842999960296,,,,,,sub97_AB,001,2026-01-30_11h59.07.929,recognitionstage,,2025.1.1,59.93791630106484,2026-01-30 11h59.38.612480 +0530,
,,,7,7,0,6,frames\Vid6_BB_T.png,frames\Vid6_L.png,['l'],1,[3.7176179999951273],[None],4,1.5813255999819376,,,,,0,7,7,5,1652.873141899996,,21,Male,Right handed,Normal,,,,,,,,,,,,,,,,,,,,,,,,,,,,,,,,,,,,,,,,1652.8482002000092,1652.873141899996,1652.873141899996,1652.873141899996,1652.873141899996,1652.873141899996,1652.873141899996,1656.6057813999942,['l'],1,[3.7176179999951273],[None],1656.6070789999794,1656.6203978999984,1656.6203978999984,1656.6203978999984,1658.2038281999994,4,1.5813255999819376,4,1.5813255999819376,,,,,,sub97_AB,001,2026-01-30_11h59.07.929,recognitionstage,,2025.1.1,59.93791630106484,2026-01-30 11h59.38.612480 +0530,
,,,8,8,0,31,frames\Vid31_EM_T.png,frames\Vid31_L.png,['r'],1,[5.270742099964991],[None],4,1.5478351999772713,,,,,0,8,8,30,1658.2398956000106,,21,Male,Right handed,Normal,,,,,,,,,,,,,,,,,,,,,,,,,,,,,,,,,,,,,,,,1658.2260652999976,1658.2398956000106,1658.2398956000106,1658.2398956000106,1658.2398956000106,1658.2398956000106,1658.2398956000106,1663.5223207999952,['r'],1,[5.270742099964991],[None],1663.5231822999776,1663.5367890999769,1663.5367890999769,1663.5367890999769,1665.0878019999946,4,1.5478351999772713,4,1.5478351999772713,,,,,,sub97_AB,001,2026-01-30_11h59.07.929,recognitionstage,,2025.1.1,59.93791630106484,2026-01-30 11h59.38.612480 +0530,
,,,9,9,0,30,frames\Vid30_EM_T.png,frames\Vid30_L.png,['l'],1,[6.91063130000839],[None],2,1.8477648999541998,,,,,0,9,9,29,1665.1201793999644,,21,Male,Right handed,Normal,,,,,,,,,,,,,,,,,,,,,,,,,,,,,,,,,,,,,,,,1665.1116133999894,1665.1201793999644,1665.1201793999644,1665.1201793999644,1665.1201793999644,1665.1201793999644,1665.1201793999644,1672.0391257999581,['l'],1,[6.91063130000839],[None],1672.0400537999813,1672.0532266999944,1672.0532266999944,1672.0532266999944,1673.9048983000102,2,1.8477648999541998,2,1.8477648999541998,,,,,,sub97_AB,001,2026-01-30_11h59.07.929,recognitionstage,,2025.1.1,59.93791630106484,2026-01-30 11h59.38.612480 +0530,
,,,10,10,0,33,frames\Vid33_BB_T.png,frames\Vid33_L.png,['r'],1,[9.805528199998662],[None],4,2.0475982000352815,,,,,0,10,10,32,1673.9371119000134,,21,Male,Right handed,Normal,,,,,,,,,,,,,,,,,,,,,,,,,,,,,,,,,,,,,,,,1673.9293184999842,1673.9371119000134,1673.9371119000134,1673.9371119000134,1673.9371119000134,1673.9371119000134,1673.9371119000134,1683.75609119999,['r'],1,[9.805528199998662],[None],1683.7570027000038,1683.7702277000062,1683.7702277000062,1683.7702277000062,1685.8215868999832,4,2.0475982000352815,4,2.0475982000352815,,,,,,sub97_AB,001,2026-01-30_11h59.07.929,recognitionstage,,2025.1.1,59.93791630106484,2026-01-30 11h59.38.612480 +0530,
,,,11,11,0,25,frames\Vid25_BB_T.png,frames\Vid25_L.png,['r'],1,[6.104888800007757],[None],4,1.313988399982918,,,,,0,11,11,24,1685.8537590999622,,21,Male,Right handed,Normal,,,,,,,,,,,,,,,,,,,,,,,,,,,,,,,,,,,,,,,,1685.847151199996,1685.8537590999622,1685.8537590999622,1685.8537590999622,1685.8537590999622,1685.8537590999622,1685.8537590999622,1691.9727557000006,['r'],1,[6.104888800007757],[None],1691.9737569999998,1691.986853200011,1691.986853200011,1691.986853200011,1693.3048074999824,4,1.313988399982918,4,1.313988399982918,,,,,,sub97_AB,001,2026-01-30_11h59.07.929,recognitionstage,,2025.1.1,59.93791630106484,2026-01-30 11h59.38.612480 +0530,
,,,12,12,0,27,frames\Vid27_BB_T.png,frames\Vid27_L.png,['r'],1,[4.981940899975598],[None],4,1.0631995999719948,,,,,0,12,12,26,1693.3368519999785,,21,Male,Right handed,Normal,,,,,,,,,,,,,,,,,,,,,,,,,,,,,,,,,,,,,,,,1693.3312877999851,1693.3368519999785,1693.3368519999785,1693.3368519999785,1693.3368519999785,1693.3368519999785,1693.3368519999785,1698.3238956999849,['r'],1,[4.981940899975598],[None],1698.3250153000117,1698.3367415000102,1698.3367415000102,1698.3367415000102,1699.4041562000057,4,1.0631995999719948,4,1.0631995999719948,,,,,,sub97_AB,001,2026-01-30_11h59.07.929,recognitionstage,,2025.1.1,59.93791630106484,2026-01-30 11h59.38.612480 +0530,
,,,13,13,0,10,frames\Vid10_BB_T.png,frames\Vid10_L.png,['r'],1,[4.2712667000014335],[None],4,1.0966997999930754,,,,,0,13,13,9,1699.4713716999977,,21,Male,Right handed,Normal,,,,,,,,,,,,,,,,,,,,,,,,,,,,,,,,,,,,,,,,1699.4618244000012,1699.4713716999977,1699.4713716999977,1699.4713716999977,1699.4713716999977,1699.4713716999977,1699.4713716999977,1703.756975599972,['r'],1,[4.2712667000014335],[None],1703.7581805000082,1703.770258900011,1703.770258900011,1703.770258900011,1704.8707669999567,4,1.0966997999930754,4,1.0966997999930754,,,,,,sub97_AB,001,2026-01-30_11h59.07.929,recognitionstage,,2025.1.1,59.93791630106484,2026-01-30 11h59.38.612480 +0530,
,,,14,14,0,38,frames\Vid38_EM_T.png,frames\Vid38_L.png,['l'],1,[4.291934900043998],[None],4,1.3801587000489235,,,,,0,14,14,37,1704.9070512999897,,21,Male,Right handed,Normal,,,,,,,,,,,,,,,,,,,,,,,,,,,,,,,,,,,,,,,,1704.8951216000132,1704.9070512999897,1704.9070512999897,1704.9070512999897,1704.9070512999897,1704.9070512999897,1704.9070512999897,1709.2070179999573,['l'],1,[4.291934900043998],[None],1709.2084990000003,1709.2353606999968,1709.2353606999968,1709.2353606999968,1710.6042508999817,4,1.3801587000489235,4,1.3801587000489235,,,,,,sub97_AB,001,2026-01-30_11h59.07.929,recognitionstage,,2025.1.1,59.93791630106484,2026-01-30 11h59.38.612480 +0530,
,,,15,15,0,32,frames\Vid32_EM_T.png,frames\Vid32_L.png,['r'],1,[3.448724299960304],[None],4,0.7490936999674886,,,,,0,15,15,31,1710.6538161999779,,21,Male,Right handed,Normal,,,,,,,,,,,,,,,,,,,,,,,,,,,,,,,,,,,,,,,,1710.633404699969,1710.6538161999779,1710.6538161999779,1710.6538161999779,1710.6538161999779,1710.6538161999779,1710.6538161999779,1714.105565099977,['r'],1,[3.448724299960304],[None],1714.1064027000102,1714.1200801999657,1714.1200801999657,1714.1200801999657,1714.8716358999955,4,0.7490936999674886,4,0.7490936999674886,,,,,,sub97_AB,001,2026-01-30_11h59.07.929,recognitionstage,,2025.1.1,59.93791630106484,2026-01-30 11h59.38.612480 +0530,
,,,16,16,0,22,frames\Vid22_EM_T.png,frames\Vid22_L.png,['r'],1,[3.582509499974549],[None],4,0.71345039998414,,,,,0,16,16,21,1714.9204182999674,,21,Male,Right handed,Normal,,,,,,,,,,,,,,,,,,,,,,,,,,,,,,,,,,,,,,,,1714.899384599994,1714.9204182999674,1714.9204182999674,1714.9204182999674,1714.9204182999674,1714.9204182999674,1714.9204182999674,1718.5064923999598,['r'],1,[3.582509499974549],[None],1718.5075414999737,1718.5201121999999,1718.5201121999999,1718.5201121999999,1719.2385311999824,4,0.71345039998414,4,0.71345039998414,,,,,,sub97_AB,001,2026-01-30_11h59.07.929,recognitionstage,,2025.1.1,59.93791630106484,2026-01-30 11h59.38.612480 +0530,
,,,17,17,0,23,frames\Vid23_EM_T.png,frames\Vid23_L.png,['r'],1,[7.239425299980212],[None],2,1.8321868000202812,,,,,0,17,17,22,1719.2871267999872,,21,Male,Right handed,Normal,,,,,,,,,,,,,,,,,,,,,,,,,,,,,,,,,,,,,,,,1719.268015699985,1719.2871267999872,1719.2871267999872,1719.2871267999872,1719.2871267999872,1719.2871267999872,1719.2871267999872,1726.5386464999756,['r'],1,[7.239425299980212],[None],1726.5394266999792,1726.553393499984,1726.553393499984,1726.553393499984,1728.3875216000015,2,1.8321868000202812,2,1.8321868000202812,,,,,,sub97_AB,001,2026-01-30_11h59.07.929,recognitionstage,,2025.1.1,59.93791630106484,2026-01-30 11h59.38.612480 +0530,
,,,18,18,0,18,frames\Vid18_EM_T.png,frames\Vid18_L.png,['l'],1,[2.994247699971311],[None],4,1.7313825999735855,,,,,0,18,18,17,1728.4204702000134,,21,Male,Right handed,Normal,,,,,,,,,,,,,,,,,,,,,,,,,,,,,,,,,,,,,,,,1728.413757900009,1728.4204702000134,1728.4204702000134,1728.4204702000134,1728.4204702000134,1728.4204702000134,1728.4204702000134,1731.4219897000003,['l'],1,[2.994247699971311],[None],1731.4228790999623,1731.4374034999637,1731.4374034999637,1731.4374034999637,1733.1711954000057,4,1.7313825999735855,4,1.7313825999735855,,,,,,sub97_AB,001,2026-01-30_11h59.07.929,recognitionstage,,2025.1.1,59.93791630106484,2026-01-30 11h59.38.612480 +0530,
,,,19,19,0,11,frames\Vid11_EM_T.png,frames\Vid11_L.png,['r'],1,[2.4649002999649383],[None],4,0.7149641999858432,,,,,0,19,19,10,1733.237741299963,,21,Male,Right handed,Normal,,,,,,,,,,,,,,,,,,,,,,,,,,,,,,,,,,,,,,,,1733.2260250999825,1733.237741299963,1733.237741299963,1733.237741299963,1733.237741299963,1733.237741299963,1733.237741299963,1735.705978599959,['r'],1,[2.4649002999649383],[None],1735.7069109999575,1735.7204046999686,1735.7204046999686,1735.7204046999686,1736.4378127999953,4,0.7149641999858432,4,0.7149641999858432,,,,,,sub97_AB,001,2026-01-30_11h59.07.929,recognitionstage,,2025.1.1,59.93791630106484,2026-01-30 11h59.38.612480 +0530,
,,,20,20,0,26,frames\Vid26_EM_T.png,frames\Vid26_L.png,['l'],1,[6.7334617000306025],[None],4,1.3480309000005946,,,,,0,20,20,25,1736.489274499996,,21,Male,Right handed,Normal,,,,,,,,,,,,,,,,,,,,,,,,,,,,,,,,,,,,,,,,1736.4690693999873,1736.489274499996,1736.489274499996,1736.489274499996,1736.489274499996,1736.489274499996,1736.489274499996,1743.238640800002,['l'],1,[6.7334617000306025],[None],1743.2395657000015,1743.2534892999684,1743.2534892999684,1743.2534892999684,1744.6048225999693,4,1.3480309000005946,4,1.3480309000005946,,,,,,sub97_AB,001,2026-01-30_11h59.07.929,recognitionstage,,2025.1.1,59.93791630106484,2026-01-30 11h59.38.612480 +0530,
,,,21,21,0,3,frames\Vid3_BB_T.png,frames\Vid3_L.png,['l'],1,[2.639718000020366],[None],4,0.6320662999642082,,,,,0,21,21,2,1744.671072199999,,21,Male,Right handed,Normal,,,,,,,,,,,,,,,,,,,,,,,,,,,,,,,,,,,,,,,,1744.657244800008,1744.671072199999,1744.671072199999,1744.671072199999,1744.671072199999,1744.671072199999,1744.671072199999,1747.322593699966,['l'],1,[2.639718000020366],[None],1747.3234273999697,1747.336693899997,1747.336693899997,1747.336693899997,1747.9709610000136,4,0.6320662999642082,4,0.6320662999642082,,,,,,sub97_AB,001,2026-01-30_11h59.07.929,recognitionstage,,2025.1.1,59.93791630106484,2026-01-30 11h59.38.612480 +0530,
,,,22,22,0,19,frames\Vid19_BB_T.png,frames\Vid19_L.png,['l'],0,[9.168769199983217],[None],2,1.3807892000186257,,,,,0,22,22,18,1748.005978000001,,21,Male,Right handed,Normal,,,,,,,,,,,,,,,,,,,,,,,,,,,,,,,,,,,,,,,,1747.9969276000047,1748.005978000001,1748.005978000001,1748.005978000001,1748.005978000001,1748.005978000001,1748.005978000001,1757.1893500000006,['l'],0,[9.168769199983217],[None],1757.190387199982,1757.203406399989,1757.203406399989,1757.203406399989,1758.5884268999798,2,1.3807892000186257,2,1.3807892000186257,,,,,,sub97_AB,001,2026-01-30_11h59.07.929,recognitionstage,,2025.1.1,59.93791630106484,2026-01-30 11h59.38.612480 +0530,
,,,23,23,0,14,frames\Vid14_BB_T.png,frames\Vid14_L.png,['l'],1,[3.759502300003078],[None],4,1.1832388000329956,,,,,0,23,23,13,1758.6712735999608,,21,Male,Right handed,Normal,,,,,,,,,,,,,,,,,,,,,,,,,,,,,,,,,,,,,,,,1758.6488696999731,1758.6712735999608,1758.6712735999608,1758.6712735999608,1758.6712735999608,1758.6712735999608,1758.6712735999608,1762.4375249999575,['l'],1,[3.759502300003078],[None],1762.4381511000101,1762.4541212999611,1762.4541212999611,1762.4541212999611,1763.6372124999762,4,1.1832388000329956,4,1.1832388000329956,,,,,,sub97_AB,001,2026-01-30_11h59.07.929,recognitionstage,,2025.1.1,59.93791630106484,2026-01-30 11h59.38.612480 +0530,
,,,24,24,0,7,frames\Vid7_EM_T.png,frames\Vid7_L.png,['l'],0,[11.460034999996424],[None],4,1.18182399997022,,,,,0,24,24,6,1763.7068447999773,,21,Male,Right handed,Normal,,,,,,,,,,,,,,,,,,,,,,,,,,,,,,,,,,,,,,,,1763.6927930999664,1763.7068447999773,1763.7068447999773,1763.7068447999773,1763.7068447999773,1763.7068447999773,1763.7068447999773,1775.1727391000022,['l'],0,[11.460034999996424],[None],1775.173893900006,1775.1870940999943,1775.1870940999943,1775.1870940999943,1776.3710730999592,4,1.18182399997022,4,1.18182399997022,,,,,,sub97_AB,001,2026-01-30_11h59.07.929,recognitionstage,,2025.1.1,59.93791630106484,2026-01-30 11h59.38.612480 +0530,
,,,25,25,0,29,frames\Vid29_BB_T.png,frames\Vid29_L.png,['l'],1,[4.823857800045516],[None],2,1.1980149999726564,,,,,0,25,25,28,1776.4229240000132,,21,Male,Right handed,Normal,,,,,,,,,,,,,,,,,,,,,,,,,,,,,,,,,,,,,,,,1776.4004667999689,1776.4229240000132,1776.4229240000132,1776.4229240000132,1776.4229240000132,1776.4229240000132,1776.4229240000132,1781.2555611999705,['l'],1,[4.823857800045516],[None],1781.2565705999732,1781.2706400000025,1781.2706400000025,1781.2706400000025,1782.471220300009,2,1.1980149999726564,2,1.1980149999726564,,,,,,sub97_AB,001,2026-01-30_11h59.07.929,recognitionstage,,2025.1.1,59.93791630106484,2026-01-30 11h59.38.612480 +0530,
,,,26,26,0,9,frames\Vid9_EM_T.png,frames\Vid9_L.png,['l'],1,[5.253487200010568],[None],4,1.0975600000238046,,,,,0,26,26,8,1782.53735649999,,21,Male,Right handed,Normal,,,,,,,,,,,,,,,,,,,,,,,,,,,,,,,,,,,,,,,,1782.5221751999925,1782.53735649999,1782.53735649999,1782.53735649999,1782.53735649999,1782.53735649999,1782.53735649999,1787.805820999958,['l'],1,[5.253487200010568],[None],1787.8069642999908,1787.820443500008,1787.820443500008,1787.820443500008,1788.921798700001,4,1.0975600000238046,4,1.0975600000238046,,,,,,sub97_AB,001,2026-01-30_11h59.07.929,recognitionstage,,2025.1.1,59.93791630106484,2026-01-30 11h59.38.612480 +0530,
,,,27,27,0,16,frames\Vid16_EM_T.png,frames\Vid16_L.png,['l'],0,[3.969012500019744],[None],1,1.048209200031124,,,,,0,27,27,15,1788.9897661999566,,21,Male,Right handed,Normal,,,,,,,,,,,,,,,,,,,,,,,,,,,,,,,,,,,,,,,,1788.9755161000066,1788.9897661999566,1788.9897661999566,1788.9897661999566,1788.9897661999566,1788.9897661999566,1788.9897661999566,1792.9727849999908,['l'],0,[3.969012500019744],[None],1792.973757700005,1792.9871600999613,1792.9871600999613,1792.9871600999613,1794.0379146999912,1,1.048209200031124,1,1.048209200031124,,,,,,sub97_AB,001,2026-01-30_11h59.07.929,recognitionstage,,2025.1.1,59.93791630106484,2026-01-30 11h59.38.612480 +0530,
,,,28,28,0,24,frames\Vid24_BB_T.png,frames\Vid24_L.png,['l'],1,[11.420894999988377],[None],4,1.6640229999902658,,,,,0,28,28,23,1794.0899482999812,,21,Male,Right handed,Normal,,,,,,,,,,,,,,,,,,,,,,,,,,,,,,,,,,,,,,,,1794.0660077999928,1794.0899482999812,1794.0899482999812,1794.0899482999812,1794.0899482999812,1794.0899482999812,1794.0899482999812,1805.5228260000004,['l'],1,[11.420894999988377],[None],1805.5239002999733,1805.5375189000042,1805.5375189000042,1805.5375189000042,1807.2053824999603,4,1.6640229999902658,4,1.6640229999902658,,,,,,sub97_AB,001,2026-01-30_11h59.07.929,recognitionstage,,2025.1.1,59.93791630106484,2026-01-30 11h59.38.612480 +0530,
,,,29,29,0,35,frames\Vid35_EM_T.png,frames\Vid35_L.png,['r'],1,[5.201771399995778],[None],4,1.113114699954167,,,,,0,29,29,34,1807.2371761999675,,21,Male,Right handed,Normal,,,,,,,,,,,,,,,,,,,,,,,,,,,,,,,,,,,,,,,,1807.2281359999906,1807.2371761999675,1807.2371761999675,1807.2371761999675,1807.2371761999675,1807.2371761999675,1807.2371761999675,1812.4402805999853,['r'],1,[5.201771399995778],[None],1812.4420400999952,1812.468533599982,1812.468533599982,1812.468533599982,1813.5713235999574,4,1.113114699954167,4,1.113114699954167,,,,,,sub97_AB,001,2026-01-30_11h59.07.929,recognitionstage,,2025.1.1,59.93791630106484,2026-01-30 11h59.38.612480 +0530,
,,,30,30,0,36,frames\Vid36_BB_T.png,frames\Vid36_L.png,['l'],1,[6.9466060000122525],[None],2,1.3960707999649458,,,,,0,30,30,35,1813.6203852999606,,21,Male,Right handed,Normal,,,,,,,,,,,,,,,,,,,,,,,,,,,,,,,,,,,,,,,,1813.5991708000074,1813.6203852999606,1813.6203852999606,1813.6203852999606,1813.6203852999606,1813.6203852999606,1813.6203852999606,1820.5741100999876,['l'],1,[6.9466060000122525],[None],1820.575643899967,1820.602067800006,1820.602067800006,1820.602067800006,1821.988321999961,2,1.3960707999649458,2,1.3960707999649458,,,,,,sub97_AB,001,2026-01-30_11h59.07.929,recognitionstage,,2025.1.1,59.93791630106484,2026-01-30 11h59.38.612480 +0530,
,,,31,31,0,13,frames\Vid13_BB_T.png,frames\Vid13_L.png,['l'],0,[6.664166300033685],[None],3,2.4987663999781944,,,,,0,31,31,12,1822.0545037999982,,21,Male,Right handed,Normal,,,,,,,,,,,,,,,,,,,,,,,,,,,,,,,,,,,,,,,,1822.0391776000033,1822.0545037999982,1822.0545037999982,1822.0545037999982,1822.0545037999982,1822.0545037999982,1822.0545037999982,1828.7215437999694,['l'],0,[6.664166300033685],[None],1828.7224113999982,1828.7371138999588,1828.7371138999588,1828.7371138999588,1831.2381295000087,3,2.4987663999781944,3,2.4987663999781944,,,,,,sub97_AB,001,2026-01-30_11h59.07.929,recognitionstage,,2025.1.1,59.93791630106484,2026-01-30 11h59.38.612480 +0530,
,,,32,32,0,40,frames\Vid40_EM_T.png,frames\Vid40_L.png,['r'],1,[5.261993699998129],[None],4,1.2492594000068493,,,,,0,32,32,39,1831.2728916999768,,21,Male,Right handed,Normal,,,,,,,,,,,,,,,,,,,,,,,,,,,,,,,,,,,,,,,,1831.2601789999753,1831.2728916999768,1831.2728916999768,1831.2728916999768,1831.2728916999768,1831.2728916999768,1831.2728916999768,1836.5383585999953,['r'],1,[5.261993699998129],[None],1836.5391140999855,1836.5538127999753,1836.5538127999753,1836.5538127999753,1837.8039532999974,4,1.2492594000068493,4,1.2492594000068493,,,,,,sub97_AB,001,2026-01-30_11h59.07.929,recognitionstage,,2025.1.1,59.93791630106484,2026-01-30 11h59.38.612480 +0530,
,,,33,33,0,12,frames\Vid12_EM_T.png,frames\Vid12_L.png,['l'],1,[2.9355166999739595],[None],4,1.8477829999756068,,,,,0,33,33,11,1837.8872504999745,,21,Male,Right handed,Normal,,,,,,,,,,,,,,,,,,,,,,,,,,,,,,,,,,,,,,,,1837.8652988999966,1837.8872504999745,1837.8872504999745,1837.8872504999745,1837.8872504999745,1837.8872504999745,1837.8872504999745,1840.839103300008,['l'],1,[2.9355166999739595],[None],1840.8399709999794,1840.85342509998,1840.85342509998,1840.85342509998,1842.70417360001,4,1.8477829999756068,4,1.8477829999756068,,,,,,sub97_AB,001,2026-01-30_11h59.07.929,recognitionstage,,2025.1.1,59.93791630106484,2026-01-30 11h59.38.612480 +0530,
,,,34,34,0,17,frames\Vid17_BB_T.png,frames\Vid17_L.png,['r'],1,[3.2818936000112444],[None],4,0.5987868999945931,,,,,0,34,34,16,1842.7568743999582,,21,Male,Right handed,Normal,,,,,,,,,,,,,,,,,,,,,,,,,,,,,,,,,,,,,,,,1842.741310100013,1842.7568743999582,1842.7568743999582,1842.7568743999582,1842.7568743999582,1842.7568743999582,1842.7568743999582,1846.055012799974,['r'],1,[3.2818936000112444],[None],1846.055723699974,1846.0704335999908,1846.0704335999908,1846.0704335999908,1846.671748999972,4,0.5987868999945931,4,0.5987868999945931,,,,,,sub97_AB,001,2026-01-30_11h59.07.929,recognitionstage,,2025.1.1,59.93791630106484,2026-01-30 11h59.38.612480 +0530,
,,,35,35,0,34,frames\Vid34_BB_T.png,frames\Vid34_L.png,['l'],1,[6.309924100001808],[None],4,0.597691000031773,,,,,0,35,35,33,1846.7051357000018,,21,Male,Right handed,Normal,,,,,,,,,,,,,,,,,,,,,,,,,,,,,,,,,,,,,,,,1846.6956942999968,1846.7051357000018,1846.7051357000018,1846.7051357000018,1846.7051357000018,1846.7051357000018,1846.7051357000018,1853.0228439999628,['l'],1,[6.309924100001808],[None],1853.0239709999878,1853.0366901999805,1853.0366901999805,1853.0366901999805,1853.637691300013,4,0.597691000031773,4,0.597691000031773,,,,,,sub97_AB,001,2026-01-30_11h59.07.929,recognitionstage,,2025.1.1,59.93791630106484,2026-01-30 11h59.38.612480 +0530,
,,,36,36,0,20,frames\Vid20_EM_T.png,frames\Vid20_L.png,['r'],1,[4.104495500039775],[None],4,0.5994032000307925,,,,,0,36,36,19,1853.6702534999931,,21,Male,Right handed,Normal,,,,,,,,,,,,,,,,,,,,,,,,,,,,,,,,,,,,,,,,1853.6578288999735,1853.6702534999931,1853.6702534999931,1853.6702534999931,1853.6702534999931,1853.6702534999931,1853.6702534999931,1857.7889080999885,['r'],1,[4.104495500039775],[None],1857.7897406999837,1857.803814199986,1857.803814199986,1857.803814199986,1858.4043741999776,4,0.5994032000307925,4,0.5994032000307925,,,,,,sub97_AB,001,2026-01-30_11h59.07.929,recognitionstage,,2025.1.1,59.93791630106484,2026-01-30 11h59.38.612480 +0530,
,,,37,37,0,28,frames\Vid28_EM_T.png,frames\Vid28_L.png,['r'],1,[3.5379735000315122],[None],4,0.5484272000030614,,,,,0,37,37,27,1858.436729799956,,21,Male,Right handed,Normal,,,,,,,,,,,,,,,,,,,,,,,,,,,,,,,,,,,,,,,,1858.4296528999694,1858.436729799956,1858.436729799956,1858.436729799956,1858.436729799956,1858.436729799956,1858.436729799956,1861.9887523999787,['r'],1,[3.5379735000315122],[None],1861.9895281000063,1862.0036098000128,1862.0036098000128,1862.0036098000128,1862.5551967999781,4,0.5484272000030614,4,0.5484272000030614,,,,,,sub97_AB,001,2026-01-30_11h59.07.929,recognitionstage,,2025.1.1,59.93791630106484,2026-01-30 11h59.38.612480 +0530,
,,,38,38,0,1,frames\Vid1_EM_T.png,frames\Vid1_L.png,['r'],1,[12.009223199973349],[None],4,0.9126845999853685,,,,,0,38,38,0,1862.6377236999688,,21,Male,Right handed,Normal,,,,,,,,,,,,,,,,,,,,,,,,,,,,,,,,,,,,,,,,1862.6186761999852,1862.6377236999688,1862.6377236999688,1862.6377236999688,1862.6377236999688,1862.6377236999688,1862.6377236999688,1874.6571194999851,['r'],1,[12.009223199973349],[None],1874.65885539999,1874.6853668999975,1874.6853668999975,1874.6853668999975,1875.5876994999708,4,0.9126845999853685,4,0.9126845999853685,,,,,,sub97_AB,001,2026-01-30_11h59.07.929,recognitionstage,,2025.1.1,59.93791630106484,2026-01-30 11h59.38.612480 +0530,
,,,39,39,0,21,frames\Vid21_BB_T.png,frames\Vid21_L.png,['r'],1,[2.9500919000129215],[None],4,0.6116836000001058,,,,,0,39,39,20,1875.6409153999994,,21,Male,Right handed,Normal,,,,,,,,,,,,,,,,,,,,,,,,,,,,,,,,,,,,,,,,1875.6148787999991,1875.6409153999994,1875.6409153999994,1875.6409153999994,1875.6409153999994,1875.6409153999994,1875.6409153999994,1878.6078125999775,['r'],1,[2.9500919000129215],[None],1878.6097919999738,1878.6351651999867,1878.6351651999867,1878.6351651999867,1879.237712299975,4,0.6116836000001058,4,0.6116836000001058,,,,,,sub97_AB,001,2026-01-30_11h59.07.929,recognitionstage,,2025.1.1,59.93791630106484,2026-01-30 11h59.38.612480 +0530,
,,,,,,,,,,,,,,,,,,,,,,,,,21,Male,Right handed,Normal,,,,,,,,,,,,,,,,,,,,,,,,,,,,,,,,,,,,,,,,,,,,,,,,,,,,,,,,,,,,,1879.237824300013,1879.2546626999974,1879.2546626999974,1899.2550640999689,None,sub97_AB,001,2026-01-30_11h59.07.929,recognitionstage,,2025.1.1,59.93791630106484,2026-01-30 11h59.38.612480 +0530,
