path,duration,is_repeat,thisN,thisTrialN,thisRepN,movie_id,target_img,lure_img,resp.keys,resp.corr,resp.rt,resp.duration,conf_radio.response,conf_radio.rt,movie.thisRepN,movie.thisTrialN,movie.thisN,movie.thisIndex,recogloop.thisRepN,recogloop.thisTrialN,recogloop.thisN,recogloop.thisIndex,thisRow.t,notes,age,gender,handedness,vision,caffeine_2h,alcohol_smoke_12h,demographics.started,demographics.stopped,Instructions.started,text1.started,key_resp.started,Instructions.stopped,key_resp.keys,key_resp.rt,key_resp.duration,instruction_2.started,text2.started,key_resp_2.started,instruction_2.stopped,key_resp_2.keys,key_resp_2.rt,key_resp_2.duration,Videos.started,movie_2.started,vigilance_resp.started,movie_2.stopped,Videos.stopped,movie.vigilance_resp.keys,vigilance_pressed,vigilance_correct,ISI.started,text.started,ISI.stopped,text.stopped,movie.vigilance_resp.rt,movie.vigilance_resp.duration,recognition.started,text_4.started,key_resp_3.started,recognition.stopped,key_resp_3.keys,key_resp_3.rt,key_resp_3.duration,recognition_task.started,leftimage.started,rightimage.started,resp.started,frames_question.started,right_label.started,left_label.started,recognition_task.stopped,recogloop.resp.keys,recogloop.resp.corr,recogloop.resp.rt,recogloop.resp.duration,confidence.started,conf_text.started,conf_radio.started,conf_label.started,confidence.stopped,recogloop.conf_radio.response,recogloop.conf_radio.rt,confidence,confidence_rt,thank_you.started,text_6.started,key_resp_4.started,thank_you.stopped,key_resp_4.keys,participant,session,date,expName,expVersion,psychopyVersion,frameRate,expStart,...103
,,,,,,,,,,,,,,,,,,,,,,,,,23,Male,Right handed,Normal,Caffeine consumed in last 2 hours?,Alcohol or smoking in last 12 hours?,0.006841900001745671,0.009210599993821234,,,,,,,,,,,,,,,,,,,,,,,,,,,,,,,,,,,,,,,,,,,,,,,,,,,,,,,,,,,,,,sub98_AB,001,2026-01-30_16h57.35.850,recognitionstage,,2025.1.1,59.95732239496839,2026-01-30 16h58.18.936666 +0530,
,,,,,,,,,,,,,,,,,,,,,,,,,23,Male,Right handed,Normal,,,,,0.009232599986717105,0.02601380000123754,0.02601380000123754,10.626046099991072,space,10.597306400013622,None,,,,,,,,,,,,,,,,,,,,,,,,,,,,,,,,,,,,,,,,,,,,,,,,,,,,,,,sub98_AB,001,2026-01-30_16h57.35.850,recognitionstage,,2025.1.1,59.95732239496839,2026-01-30 16h58.18.936666 +0530,
,,,,,,,,,,,,,,,,,,,,,,,,,23,Male,Right handed,Normal,,,,,,,,,,,,10.626076599990483,10.642515600018669,10.642515600018669,23.543435900006443,space,12.893355899956077,None,,,,,,,,,,,,,,,,,,,,,,,,,,,,,,,,,,,,,,,,,,,,,,,,sub98_AB,001,2026-01-30_16h57.35.850,recognitionstage,,2025.1.1,59.95732239496839,2026-01-30 16h58.18.936666 +0530,
abrupt_videos\abrupt_36.mp4,19,0,44,44,0,,,,,,,,,,0,44,44,39,,,,,1528.0422042999999,,23,Male,Right handed,Normal,,,,,,,,,,,,,,,,,,,1527.9917187999818,1528.0422042999999,1528.0422042999999,1547.608607799979,1547.4643372999853,None,0,1,1547.600456300017,1547.608607799979,1550.0951383999782,1550.1105807999847,3.7698843000107445,None,1550.0952137999702,1550.1105807999847,1550.1105807999847,1579.7281959999818,space,29.60956830001669,None,,,,,,,,,,,,,,,,,,,,,,,,,,,sub98_AB,001,2026-01-30_16h57.35.850,recognitionstage,,2025.1.1,59.95732239496839,2026-01-30 16h58.18.936666 +0530,
,,,0,0,0,22,frames\Vid22_EM_T.png,frames\Vid22_L.png,['l'],1,[9.90602029999718],[None],5,9.28085890004877,,,,,0,0,0,21,1579.7577588999993,,23,Male,Right handed,Normal,,,,,,,,,,,,,,,,,,,,,,,,,,,,,,,,,,,,,,,,1579.749182700005,1579.7577588999993,1579.7577588999993,1579.7577588999993,1579.7577588999993,1579.7577588999993,1579.7577588999993,1589.6787169000017,['l'],1,[9.90602029999718],[None],1589.679749300005,1589.7071493999683,1589.7071493999683,1589.7071493999683,1598.976771400019,5,9.28085890004877,5,9.28085890004877,,,,,,sub98_AB,001,2026-01-30_16h57.35.850,recognitionstage,,2025.1.1,59.95732239496839,2026-01-30 16h58.18.936666 +0530,
,,,1,1,0,31,frames\Vid31_EM_T.png,frames\Vid31_L.png,['l'],1,[8.295804399996996],[None],5,2.2307201999938115,,,,,0,1,1,30,1599.0080528999679,,23,Male,Right handed,Normal,,,,,,,,,,,,,,,,,,,,,,,,,,,,,,,,,,,,,,,,1598.9901586999767,1599.0080528999679,1599.0080528999679,1599.0080528999679,1599.0080528999679,1599.0080528999679,1599.0080528999679,1607.3116846000194,['l'],1,[8.295804399996996],[None],1607.3127771000145,1607.3260590999853,1607.3260590999853,1607.3260590999853,1609.560632799985,5,2.2307201999938115,5,2.2307201999938115,,,,,,sub98_AB,001,2026-01-30_16h57.35.850,recognitionstage,,2025.1.1,59.95732239496839,2026-01-30 16h58.18.936666 +0530,
,,,2,2,0,5,frames\Vid5_EM_T.png,frames\Vid5_L.png,['r'],1,[15.086176600016188],[None],3,5.081715099979192,,,,,0,2,2,4,1609.6094602000085,,23,Male,Right handed,Normal,,,,,,,,,,,,,,,,,,,,,,,,,,,,,,,,,,,,,,,,1609.5921092999633,1609.6094602000085,1609.6094602000085,1609.6094602000085,1609.6094602000085,1609.6094602000085,1609.6094602000085,1624.711297700007,['r'],1,[15.086176600016188],[None],1624.7123229000135,1624.726160399965,1624.726160399965,1624.726160399965,1629.8100439999835,3,5.081715099979192,3,5.081715099979192,,,,,,sub98_AB,001,2026-01-30_16h57.35.850,recognitionstage,,2025.1.1,59.95732239496839,2026-01-30 16h58.18.936666 +0530,
,,,3,3,0,3,frames\Vid3_BB_T.png,frames\Vid3_L.png,['r'],1,[8.532795100007206],[None],5,1.7485951000126079,,,,,0,3,3,2,1629.8749988999916,,23,Male,Right handed,Normal,,,,,,,,,,,,,,,,,,,,,,,,,,,,,,,,,,,,,,,,1629.8590225999942,1629.8749988999916,1629.8749988999916,1629.8749988999916,1629.8749988999916,1629.8749988999916,1629.8749988999916,1638.4115564000094,['r'],1,[8.532795100007206],[None],1638.4126661999617,1638.4262052999693,1638.4262052999693,1638.4262052999693,1640.176725599973,5,1.7485951000126079,5,1.7485951000126079,,,,,,sub98_AB,001,2026-01-30_16h57.35.850,recognitionstage,,2025.1.1,59.95732239496839,2026-01-30 16h58.18.936666 +0530,
,,,4,4,0,21,frames\Vid21_BB_T.png,frames\Vid21_L.png,['l'],1,[8.779877500026487],[None],5,1.881819500005804,,,,,0,4,4,20,1640.211768899986,,23,Male,Right handed,Normal,,,,,,,,,,,,,,,,,,,,,,,,,,,,,,,,,,,,,,,,1640.1902303000097,1640.211768899986,1640.211768899986,1640.211768899986,1640.211768899986,1640.211768899986,1640.211768899986,1648.9948679999798,['l'],1,[8.779877500026487],[None],1648.9959577000118,1649.009038499964,1649.009038499964,1649.009038499964,1650.894015799975,5,1.881819500005804,5,1.881819500005804,,,,,,sub98_AB,001,2026-01-30_16h57.35.850,recognitionstage,,2025.1.1,59.95732239496839,2026-01-30 16h58.18.936666 +0530,
,,,5,5,0,17,frames\Vid17_BB_T.png,frames\Vid17_L.png,['r'],0,[16.26475460000802],[None],2,2.3659538000356406,,,,,0,5,5,16,1650.942862499971,,23,Male,Right handed,Normal,,,,,,,,,,,,,,,,,,,,,,,,,,,,,,,,,,,,,,,,1650.9214247000054,1650.942862499971,1650.942862499971,1650.942862499971,1650.942862499971,1650.942862499971,1650.942862499971,1667.2100147000165,['r'],0,[16.26475460000802],[None],1667.2107194999699,1667.2264287999715,1667.2264287999715,1667.2264287999715,1669.5933487999719,2,2.3659538000356406,2,2.3659538000356406,,,,,,sub98_AB,001,2026-01-30_16h57.35.850,recognitionstage,,2025.1.1,59.95732239496839,2026-01-30 16h58.18.936666 +0530,
,,,6,6,0,32,frames\Vid32_EM_T.png,frames\Vid32_L.png,['r'],1,[5.452842200000305],[None],5,1.3314308000262827,,,,,0,6,6,31,1669.6270439999644,,23,Male,Right handed,Normal,,,,,,,,,,,,,,,,,,,,,,,,,,,,,,,,,,,,,,,,1669.6037851999863,1669.6270439999644,1669.6270439999644,1669.6270439999644,1669.6270439999644,1669.6270439999644,1669.6270439999644,1675.0944217999931,['r'],1,[5.452842200000305],[None],1675.0955688999966,1675.1094036999857,1675.1094036999857,1675.1094036999857,1676.4435062999837,5,1.3314308000262827,5,1.3314308000262827,,,,,,sub98_AB,001,2026-01-30_16h57.35.850,recognitionstage,,2025.1.1,59.95732239496839,2026-01-30 16h58.18.936666 +0530,
,,,7,7,0,1,frames\Vid1_EM_T.png,frames\Vid1_L.png,['r'],1,[7.562024799990468],[None],5,1.3481085000094026,,,,,0,7,7,0,1676.5097247000085,,23,Male,Right handed,Normal,,,,,,,,,,,,,,,,,,,,,,,,,,,,,,,,,,,,,,,,1676.4887804000173,1676.5097247000085,1676.5097247000085,1676.5097247000085,1676.5097247000085,1676.5097247000085,1676.5097247000085,1684.0781442999723,['r'],1,[7.562024799990468],[None],1684.0793378999806,1684.0927703999914,1684.0927703999914,1684.0927703999914,1685.4429169999785,5,1.3481085000094026,5,1.3481085000094026,,,,,,sub98_AB,001,2026-01-30_16h57.35.850,recognitionstage,,2025.1.1,59.95732239496839,2026-01-30 16h58.18.936666 +0530,
,,,8,8,0,13,frames\Vid13_BB_T.png,frames\Vid13_L.png,['r'],0,[10.071920399961527],[None],4,2.981410500011407,,,,,0,8,8,12,1685.4958076999756,,23,Male,Right handed,Normal,,,,,,,,,,,,,,,,,,,,,,,,,,,,,,,,,,,,,,,,1685.476799600001,1685.4958076999756,1685.4958076999756,1685.4958076999756,1685.4958076999756,1685.4958076999756,1685.4958076999756,1695.5788072000141,['r'],0,[10.071920399961527],[None],1695.5799455000088,1695.592377199966,1695.592377199966,1695.592377199966,1698.576883199974,4,2.981410500011407,4,2.981410500011407,,,,,,sub98_AB,001,2026-01-30_16h57.35.850,recognitionstage,,2025.1.1,59.95732239496839,2026-01-30 16h58.18.936666 +0530,
,,,9,9,0,29,frames\Vid29_BB_T.png,frames\Vid29_L.png,['r'],1,[5.100293399998918],[None],5,2.3313325999770314,,,,,0,9,9,28,1698.6116068999982,,23,Male,Right handed,Normal,,,,,,,,,,,,,,,,,,,,,,,,,,,,,,,,,,,,,,,,1698.5883080000058,1698.6116068999982,1698.6116068999982,1698.6116068999982,1698.6116068999982,1698.6116068999982,1698.6116068999982,1703.7285727999988,['r'],1,[5.100293399998918],[None],1703.7294813999906,1703.7423426000169,1703.7423426000169,1703.7423426000169,1706.0765370000154,5,2.3313325999770314,5,2.3313325999770314,,,,,,sub98_AB,001,2026-01-30_16h57.35.850,recognitionstage,,2025.1.1,59.95732239496839,2026-01-30 16h58.18.936666 +0530,
,,,10,10,0,34,frames\Vid34_BB_T.png,frames\Vid34_L.png,['l'],1,[6.209314099978656],[None],5,1.797938100004103,,,,,0,10,10,33,1706.094673399988,,23,Male,Right handed,Normal,,,,,,,,,,,,,,,,,,,,,,,,,,,,,,,,,,,,,,,,1706.0867494000122,1706.094673399988,1706.094673399988,1706.094673399988,1706.094673399988,1706.094673399988,1706.094673399988,1712.3114187999745,['l'],1,[6.209314099978656],[None],1712.312495399965,1712.3262252999702,1712.3262252999702,1712.3262252999702,1714.1267918999656,5,1.797938100004103,5,1.797938100004103,,,,,,sub98_AB,001,2026-01-30_16h57.35.850,recognitionstage,,2025.1.1,59.95732239496839,2026-01-30 16h58.18.936666 +0530,
,,,11,11,0,16,frames\Vid16_EM_T.png,frames\Vid16_L.png,['r'],1,[8.503334200009704],[None],4,2.2806067000492476,,,,,0,11,11,15,1714.1763303999905,,23,Male,Right handed,Normal,,,,,,,,,,,,,,,,,,,,,,,,,,,,,,,,,,,,,,,,1714.1667124999803,1714.1763303999905,1714.1763303999905,1714.1763303999905,1714.1763303999905,1714.1763303999905,1714.1763303999905,1722.6949507999816,['r'],1,[8.503334200009704],[None],1722.696088799974,1722.7091885000118,1722.7091885000118,1722.7091885000118,1724.9933231999748,4,2.2806067000492476,4,2.2806067000492476,,,,,,sub98_AB,001,2026-01-30_16h57.35.850,recognitionstage,,2025.1.1,59.95732239496839,2026-01-30 16h58.18.936666 +0530,
,,,12,12,0,26,frames\Vid26_EM_T.png,frames\Vid26_L.png,['r'],1,[2.987212600011844],[None],5,2.598409900034312,,,,,0,12,12,25,1725.028612299997,,23,Male,Right handed,Normal,,,,,,,,,,,,,,,,,,,,,,,,,,,,,,,,,,,,,,,,1725.0071913999855,1725.028612299997,1725.028612299997,1725.028612299997,1725.028612299997,1725.028612299997,1725.028612299997,1728.0276168999844,['r'],1,[2.987212600011844],[None],1728.0285544999642,1728.0426909999806,1728.0426909999806,1728.0426909999806,1730.643482399988,5,2.598409900034312,5,2.598409900034312,,,,,,sub98_AB,001,2026-01-30_16h57.35.850,recognitionstage,,2025.1.1,59.95732239496839,2026-01-30 16h58.18.936666 +0530,
,,,13,13,0,27,frames\Vid27_BB_T.png,frames\Vid27_L.png,['l'],1,[7.650846900010947],[None],4,1.8311567000346258,,,,,0,13,13,26,1730.6610681000166,,23,Male,Right handed,Normal,,,,,,,,,,,,,,,,,,,,,,,,,,,,,,,,,,,,,,,,1730.652951499971,1730.6610681000166,1730.6610681000166,1730.6610681000166,1730.6610681000166,1730.6610681000166,1730.6610681000166,1738.3282075999887,['l'],1,[7.650846900010947],[None],1738.3292129000183,1738.3427458999795,1738.3427458999795,1738.3427458999795,1740.17654700001,4,1.8311567000346258,4,1.8311567000346258,,,,,,sub98_AB,001,2026-01-30_16h57.35.850,recognitionstage,,2025.1.1,59.95732239496839,2026-01-30 16h58.18.936666 +0530,
,,,14,14,0,6,frames\Vid6_BB_T.png,frames\Vid6_L.png,['r'],1,[6.486097300017718],[None],5,1.6156023000366986,,,,,0,14,14,5,1740.2261121000047,,23,Male,Right handed,Normal,,,,,,,,,,,,,,,,,,,,,,,,,,,,,,,,,,,,,,,,1740.2200320999837,1740.2261121000047,1740.2261121000047,1740.2261121000047,1740.2261121000047,1740.2261121000047,1740.2261121000047,1746.7275540999835,['r'],1,[6.486097300017718],[None],1746.7283420999884,1746.7427658999804,1746.7427658999804,1746.7427658999804,1748.359679599991,5,1.6156023000366986,5,1.6156023000366986,,,,,,sub98_AB,001,2026-01-30_16h57.35.850,recognitionstage,,2025.1.1,59.95732239496839,2026-01-30 16h58.18.936666 +0530,
,,,15,15,0,9,frames\Vid9_EM_T.png,frames\Vid9_L.png,['l'],1,[9.06721639999887],[None],5,1.7969025999773294,,,,,0,15,15,8,1748.4125712999958,,23,Male,Right handed,Normal,,,,,,,,,,,,,,,,,,,,,,,,,,,,,,,,,,,,,,,,1748.3986926999642,1748.4125712999958,1748.4125712999958,1748.4125712999958,1748.4125712999958,1748.4125712999958,1748.4125712999958,1757.4955479999771,['l'],1,[9.06721639999887],[None],1757.4969649999985,1757.5092149999691,1757.5092149999691,1757.5092149999691,1759.3096968000173,5,1.7969025999773294,5,1.7969025999773294,,,,,,sub98_AB,001,2026-01-30_16h57.35.850,recognitionstage,,2025.1.1,59.95732239496839,2026-01-30 16h58.18.936666 +0530,
,,,16,16,0,30,frames\Vid30_EM_T.png,frames\Vid30_L.png,['r'],1,[7.07037259999197],[None],5,3.5137453000061214,,,,,0,16,16,29,1759.3453748999746,,23,Male,Right handed,Normal,,,,,,,,,,,,,,,,,,,,,,,,,,,,,,,,,,,,,,,,1759.320735300018,1759.3453748999746,1759.3453748999746,1759.3453748999746,1759.3453748999746,1759.3453748999746,1759.3453748999746,1766.4287486000103,['r'],1,[7.07037259999197],[None],1766.4299405000056,1766.442436799989,1766.442436799989,1766.442436799989,1769.9606672999798,5,3.5137453000061214,5,3.5137453000061214,,,,,,sub98_AB,001,2026-01-30_16h57.35.850,recognitionstage,,2025.1.1,59.95732239496839,2026-01-30 16h58.18.936666 +0530,
,,,17,17,0,39,frames\Vid39_BB_T.png,frames\Vid39_L.png,['r'],1,[12.150128099950962],[None],2,1.8473020999808796,,,,,0,17,17,38,1769.9776278999634,,23,Male,Right handed,Normal,,,,,,,,,,,,,,,,,,,,,,,,,,,,,,,,,,,,,,,,1769.9679478000035,1769.9776278999634,1769.9776278999634,1769.9776278999634,1769.9776278999634,1769.9776278999634,1769.9776278999634,1782.1283887000172,['r'],1,[12.150128099950962],[None],1782.129285699979,1782.1426146000158,1782.1426146000158,1782.1426146000158,1783.9941752000013,2,1.8473020999808796,2,1.8473020999808796,,,,,,sub98_AB,001,2026-01-30_16h57.35.850,recognitionstage,,2025.1.1,59.95732239496839,2026-01-30 16h58.18.936666 +0530,
,,,18,18,0,35,frames\Vid35_EM_T.png,frames\Vid35_L.png,['l'],1,[9.276879300014116],[None],5,1.816128500038758,,,,,0,18,18,34,1784.010765300016,,23,Male,Right handed,Normal,,,,,,,,,,,,,,,,,,,,,,,,,,,,,,,,,,,,,,,,1784.0033822999685,1784.010765300016,1784.010765300016,1784.010765300016,1784.010765300016,1784.010765300016,1784.010765300016,1793.293827400019,['l'],1,[9.276879300014116],[None],1793.294477599964,1793.3092867999803,1793.3092867999803,1793.3092867999803,1795.1272637000075,5,1.816128500038758,5,1.816128500038758,,,,,,sub98_AB,001,2026-01-30_16h57.35.850,recognitionstage,,2025.1.1,59.95732239496839,2026-01-30 16h58.18.936666 +0530,
,,,19,19,0,2,frames\Vid2_BB_T.png,frames\Vid2_L.png,['l'],1,[9.50343530002283],[None],5,1.3475479999906383,,,,,0,19,19,1,1795.1762953000143,,23,Male,Right handed,Normal,,,,,,,,,,,,,,,,,,,,,,,,,,,,,,,,,,,,,,,,1795.1657628999674,1795.1762953000143,1795.1762953000143,1795.1762953000143,1795.1762953000143,1795.1762953000143,1795.1762953000143,1804.6949104999658,['l'],1,[9.50343530002283],[None],1804.695800299989,1804.7092267000116,1804.7092267000116,1804.7092267000116,1806.060110099963,5,1.3475479999906383,5,1.3475479999906383,,,,,,sub98_AB,001,2026-01-30_16h57.35.850,recognitionstage,,2025.1.1,59.95732239496839,2026-01-30 16h58.18.936666 +0530,
,,,20,20,0,4,frames\Vid4_EM_T.png,frames\Vid4_L.png,['l'],0,[23.158600600028876],[None],4,1.9655202000285499,,,,,0,20,20,3,1806.1293252999894,,23,Male,Right handed,Normal,,,,,,,,,,,,,,,,,,,,,,,,,,,,,,,,,,,,,,,,1806.114337100007,1806.1293252999894,1806.1293252999894,1806.1293252999894,1806.1293252999894,1806.1293252999894,1806.1293252999894,1829.2943477999652,['l'],0,[23.158600600028876],[None],1829.295255600009,1829.3094908999628,1829.3094908999628,1829.3094908999628,1831.2772701999638,4,1.9655202000285499,4,1.9655202000285499,,,,,,sub98_AB,001,2026-01-30_16h57.35.850,recognitionstage,,2025.1.1,59.95732239496839,2026-01-30 16h58.18.936666 +0530,
,,,21,21,0,37,frames\Vid37_BB_T.png,frames\Vid37_L.png,['r'],1,[8.024160299974028],[None],4,0.9984604000346735,,,,,0,21,21,36,1831.3116638999782,,23,Male,Right handed,Normal,,,,,,,,,,,,,,,,,,,,,,,,,,,,,,,,,,,,,,,,1831.2928120999713,1831.3116638999782,1831.3116638999782,1831.3116638999782,1831.3116638999782,1831.3116638999782,1831.3116638999782,1839.3441002999898,['r'],1,[8.024160299974028],[None],1839.3449658000027,1839.3596869999892,1839.3596869999892,1839.3596869999892,1840.3602231999976,4,0.9984604000346735,4,0.9984604000346735,,,,,,sub98_AB,001,2026-01-30_16h57.35.850,recognitionstage,,2025.1.1,59.95732239496839,2026-01-30 16h58.18.936666 +0530,
,,,22,22,0,8,frames\Vid8_BB_T.png,frames\Vid8_L.png,['r'],1,[10.693695900030434],[None],3,2.848737800028175,,,,,0,22,22,7,1840.4101712999982,,23,Male,Right handed,Normal,,,,,,,,,,,,,,,,,,,,,,,,,,,,,,,,,,,,,,,,1840.3985184999765,1840.4101712999982,1840.4101712999982,1840.4101712999982,1840.4101712999982,1840.4101712999982,1840.4101712999982,1851.1109305999707,['r'],1,[10.693695900030434],[None],1851.1119312999654,1851.1261326000094,1851.1261326000094,1851.1261326000094,1853.9769456000067,3,2.848737800028175,3,2.848737800028175,,,,,,sub98_AB,001,2026-01-30_16h57.35.850,recognitionstage,,2025.1.1,59.95732239496839,2026-01-30 16h58.18.936666 +0530,
,,,23,23,0,40,frames\Vid40_EM_T.png,frames\Vid40_L.png,['l'],0,[9.107650100020692],[None],3,1.6320985999773256,,,,,0,23,23,39,1854.0120926999953,,23,Male,Right handed,Normal,,,,,,,,,,,,,,,,,,,,,,,,,,,,,,,,,,,,,,,,1853.9871015999815,1854.0120926999953,1854.0120926999953,1854.0120926999953,1854.0120926999953,1854.0120926999953,1854.0120926999953,1863.1280440000119,['l'],0,[9.107650100020692],[None],1863.128854700015,1863.1424774999614,1863.1424774999614,1863.1424774999614,1864.7771280999877,3,1.6320985999773256,3,1.6320985999773256,,,,,,sub98_AB,001,2026-01-30_16h57.35.850,recognitionstage,,2025.1.1,59.95732239496839,2026-01-30 16h58.18.936666 +0530,
,,,24,24,0,15,frames\Vid15_BB_T.png,frames\Vid15_L.png,['l'],1,[6.444842200027779],[None],5,1.4143930999562144,,,,,0,24,24,14,1864.8430298999883,,23,Male,Right handed,Normal,,,,,,,,,,,,,,,,,,,,,,,,,,,,,,,,,,,,,,,,1864.8265152999666,1864.8430298999883,1864.8430298999883,1864.8430298999883,1864.8430298999883,1864.8430298999883,1864.8430298999883,1871.2948621999822,['l'],1,[6.444842200027779],[None],1871.2958093999769,1871.309138200013,1871.309138200013,1871.309138200013,1872.727605699969,5,1.4143930999562144,5,1.4143930999562144,,,,,,sub98_AB,001,2026-01-30_16h57.35.850,recognitionstage,,2025.1.1,59.95732239496839,2026-01-30 16h58.18.936666 +0530,
,,,25,25,0,23,frames\Vid23_EM_T.png,frames\Vid23_L.png,['l'],1,[7.893819599994458],[None],4,1.5317103999550454,,,,,0,25,25,22,1872.7620315999957,,23,Male,Right handed,Normal,,,,,,,,,,,,,,,,,,,,,,,,,,,,,,,,,,,,,,,,1872.7455773999682,1872.7620315999957,1872.7620315999957,1872.7620315999957,1872.7620315999957,1872.7620315999957,1872.7620315999957,1880.6614341000095,['l'],1,[7.893819599994458],[None],1880.6623848999734,1880.6761847999878,1880.6761847999878,1880.6761847999878,1882.2105614999891,4,1.5317103999550454,4,1.5317103999550454,,,,,,sub98_AB,001,2026-01-30_16h57.35.850,recognitionstage,,2025.1.1,59.95732239496839,2026-01-30 16h58.18.936666 +0530,
,,,26,26,0,12,frames\Vid12_EM_T.png,frames\Vid12_L.png,['r'],1,[10.403858500008937],[None],4,1.1993875000043772,,,,,0,26,26,11,1882.259854200005,,23,Male,Right handed,Normal,,,,,,,,,,,,,,,,,,,,,,,,,,,,,,,,,,,,,,,,1882.2530052000075,1882.259854200005,1882.259854200005,1882.259854200005,1882.259854200005,1882.259854200005,1882.259854200005,1892.678025399975,['r'],1,[10.403858500008937],[None],1892.6789395000087,1892.6927240999648,1892.6927240999648,1892.6927240999648,1893.8935361999902,4,1.1993875000043772,4,1.1993875000043772,,,,,,sub98_AB,001,2026-01-30_16h57.35.850,recognitionstage,,2025.1.1,59.95732239496839,2026-01-30 16h58.18.936666 +0530,
,,,27,27,0,19,frames\Vid19_BB_T.png,frames\Vid19_L.png,['r'],1,[8.614686799992342],[None],5,1.6813220000476576,,,,,0,27,27,18,1893.9291579999845,,23,Male,Right handed,Normal,,,,,,,,,,,,,,,,,,,,,,,,,,,,,,,,,,,,,,,,1893.9085405999795,1893.9291579999845,1893.9291579999845,1893.9291579999845,1893.9291579999845,1893.9291579999845,1893.9291579999845,1902.545675900008,['r'],1,[8.614686799992342],[None],1902.546794999973,1902.5741023999872,1902.5741023999872,1902.5741023999872,1904.2436735999654,5,1.6813220000476576,5,1.6813220000476576,,,,,,sub98_AB,001,2026-01-30_16h57.35.850,recognitionstage,,2025.1.1,59.95732239496839,2026-01-30 16h58.18.936666 +0530,
,,,28,28,0,10,frames\Vid10_BB_T.png,frames\Vid10_L.png,['r'],0,[7.91400310001336],[None],3,2.8973294000024907,,,,,0,28,28,9,1904.3098229999887,,23,Male,Right handed,Normal,,,,,,,,,,,,,,,,,,,,,,,,,,,,,,,,,,,,,,,,1904.2899529999704,1904.3098229999887,1904.3098229999887,1904.3098229999887,1904.3098229999887,1904.3098229999887,1904.3098229999887,1912.228980899963,['r'],0,[7.91400310001336],[None],1912.2298242999823,1912.2423087999923,1912.2423087999923,1912.2423087999923,1915.1436018999666,3,2.8973294000024907,3,2.8973294000024907,,,,,,sub98_AB,001,2026-01-30_16h57.35.850,recognitionstage,,2025.1.1,59.95732239496839,2026-01-30 16h58.18.936666 +0530,
,,,29,29,0,25,frames\Vid25_BB_T.png,frames\Vid25_L.png,['r'],1,[8.78865709999809],[None],4,1.731467799982056,,,,,0,29,29,24,1915.179056999972,,23,Male,Right handed,Normal,,,,,,,,,,,,,,,,,,,,,,,,,,,,,,,,,,,,,,,,1915.1572810999933,1915.179056999972,1915.179056999972,1915.179056999972,1915.179056999972,1915.179056999972,1915.179056999972,1923.977582099964,['r'],1,[8.78865709999809],[None],1923.9785393999773,1923.992786799965,1923.992786799965,1923.992786799965,1925.726419100014,4,1.731467799982056,4,1.731467799982056,,,,,,sub98_AB,001,2026-01-30_16h57.35.850,recognitionstage,,2025.1.1,59.95732239496839,2026-01-30 16h58.18.936666 +0530,
,,,30,30,0,20,frames\Vid20_EM_T.png,frames\Vid20_L.png,['r'],1,[9.031696299964096],[None],3,1.5320923999533989,,,,,0,30,30,19,1925.7440485999687,,23,Male,Right handed,Normal,,,,,,,,,,,,,,,,,,,,,,,,,,,,,,,,,,,,,,,,1925.7323868999956,1925.7440485999687,1925.7440485999687,1925.7440485999687,1925.7440485999687,1925.7440485999687,1925.7440485999687,1934.7777146999724,['r'],1,[9.031696299964096],[None],1934.7786640999839,1934.7927519999794,1934.7927519999794,1934.7927519999794,1936.3270620999974,3,1.5320923999533989,3,1.5320923999533989,,,,,,sub98_AB,001,2026-01-30_16h57.35.850,recognitionstage,,2025.1.1,59.95732239496839,2026-01-30 16h58.18.936666 +0530,
,,,31,31,0,33,frames\Vid33_BB_T.png,frames\Vid33_L.png,['l'],1,[7.161030399962328],[None],5,1.2480153000215068,,,,,0,31,31,32,1936.3589149999898,,23,Male,Right handed,Normal,,,,,,,,,,,,,,,,,,,,,,,,,,,,,,,,,,,,,,,,1936.3384075000067,1936.3589149999898,1936.3589149999898,1936.3589149999898,1936.3589149999898,1936.3589149999898,1936.3589149999898,1943.5280850999989,['l'],1,[7.161030399962328],[None],1943.5290559999994,1943.5427807999658,1943.5427807999658,1943.5427807999658,1944.7932168999687,5,1.2480153000215068,5,1.2480153000215068,,,,,,sub98_AB,001,2026-01-30_16h57.35.850,recognitionstage,,2025.1.1,59.95732239496839,2026-01-30 16h58.18.936666 +0530,
,,,32,32,0,14,frames\Vid14_BB_T.png,frames\Vid14_L.png,['l'],1,[7.420221199980006],[None],3,3.26615739997942,,,,,0,32,32,13,1944.8595902000088,,23,Male,Right handed,Normal,,,,,,,,,,,,,,,,,,,,,,,,,,,,,,,,,,,,,,,,1944.8402364999638,1944.8595902000088,1944.8595902000088,1944.8595902000088,1944.8595902000088,1944.8595902000088,1944.8595902000088,1952.2942909999983,['l'],1,[7.420221199980006],[None],1952.2951012999984,1952.3098819999723,1952.3098819999723,1952.3098819999723,1955.5767170999898,3,3.26615739997942,3,3.26615739997942,,,,,,sub98_AB,001,2026-01-30_16h57.35.850,recognitionstage,,2025.1.1,59.95732239496839,2026-01-30 16h58.18.936666 +0530,
,,,33,33,0,28,frames\Vid28_EM_T.png,frames\Vid28_L.png,['r'],1,[9.554932900005952],[None],5,1.5822421999764629,,,,,0,33,33,27,1955.596904099977,,23,Male,Right handed,Normal,,,,,,,,,,,,,,,,,,,,,,,,,,,,,,,,,,,,,,,,1955.5860075000091,1955.596904099977,1955.596904099977,1955.596904099977,1955.596904099977,1955.596904099977,1955.596904099977,1965.1611816000077,['r'],1,[9.554932900005952],[None],1965.1621221000096,1965.176192599989,1965.176192599989,1965.176192599989,1966.7598036999698,5,1.5822421999764629,5,1.5822421999764629,,,,,,sub98_AB,001,2026-01-30_16h57.35.850,recognitionstage,,2025.1.1,59.95732239496839,2026-01-30 16h58.18.936666 +0530,
,,,34,34,0,11,frames\Vid11_EM_T.png,frames\Vid11_L.png,['r'],1,[4.022154000005685],[None],5,0.9141972999786958,,,,,0,34,34,10,1966.809596200008,,23,Male,Right handed,Normal,,,,,,,,,,,,,,,,,,,,,,,,,,,,,,,,,,,,,,,,1966.8018336999812,1966.809596200008,1966.809596200008,1966.809596200008,1966.809596200008,1966.809596200008,1966.809596200008,1970.8451542999828,['r'],1,[4.022154000005685],[None],1970.8464135999675,1970.859572299989,1970.859572299989,1970.859572299989,1971.7762851999723,5,0.9141972999786958,5,0.9141972999786958,,,,,,sub98_AB,001,2026-01-30_16h57.35.850,recognitionstage,,2025.1.1,59.95732239496839,2026-01-30 16h58.18.936666 +0530,
,,,35,35,0,18,frames\Vid18_EM_T.png,frames\Vid18_L.png,['r'],1,[5.5326116000069305],[None],3,1.5308100000256673,,,,,0,35,35,17,1971.8113020000164,,23,Male,Right handed,Normal,,,,,,,,,,,,,,,,,,,,,,,,,,,,,,,,,,,,,,,,1971.7875855999882,1971.8113020000164,1971.8113020000164,1971.8113020000164,1971.8113020000164,1971.8113020000164,1971.8113020000164,1977.3618679000065,['r'],1,[5.5326116000069305],[None],1977.3630406999728,1977.3756749000167,1977.3756749000167,1977.3756749000167,1978.9097840000177,3,1.5308100000256673,3,1.5308100000256673,,,,,,sub98_AB,001,2026-01-30_16h57.35.850,recognitionstage,,2025.1.1,59.95732239496839,2026-01-30 16h58.18.936666 +0530,
,,,36,36,0,38,frames\Vid38_EM_T.png,frames\Vid38_L.png,['l'],1,[7.361023099976592],[None],2,2.2830450999899767,,,,,0,36,36,37,1978.9427845000173,,23,Male,Right handed,Normal,,,,,,,,,,,,,,,,,,,,,,,,,,,,,,,,,,,,,,,,1978.9205446999986,1978.9427845000173,1978.9427845000173,1978.9427845000173,1978.9427845000173,1978.9427845000173,1978.9427845000173,1986.3110676999786,['l'],1,[7.361023099976592],[None],1986.3121256000013,1986.3260485999635,1986.3260485999635,1986.3260485999635,1988.6101359999739,2,2.2830450999899767,2,2.2830450999899767,,,,,,sub98_AB,001,2026-01-30_16h57.35.850,recognitionstage,,2025.1.1,59.95732239496839,2026-01-30 16h58.18.936666 +0530,
,,,37,37,0,36,frames\Vid36_BB_T.png,frames\Vid36_L.png,['r'],0,[8.485074499971233],[None],2,1.3290516000124626,,,,,0,37,37,35,1988.6427998999716,,23,Male,Right handed,Normal,,,,,,,,,,,,,,,,,,,,,,,,,,,,,,,,,,,,,,,,1988.6227292999974,1988.6427998999716,1988.6427998999716,1988.6427998999716,1988.6427998999716,1988.6427998999716,1988.6427998999716,1997.130282099999,['r'],0,[8.485074499971233],[None],1997.1317142999615,1997.157709799998,1997.157709799998,1997.157709799998,1998.4769694000133,2,1.3290516000124626,2,1.3290516000124626,,,,,,sub98_AB,001,2026-01-30_16h57.35.850,recognitionstage,,2025.1.1,59.95732239496839,2026-01-30 16h58.18.936666 +0530,
,,,38,38,0,7,frames\Vid7_EM_T.png,frames\Vid7_L.png,['r'],0,[12.225301200000104],[None],3,1.4161062000202946,,,,,0,38,38,6,1998.5264487999957,,23,Male,Right handed,Normal,,,,,,,,,,,,,,,,,,,,,,,,,,,,,,,,,,,,,,,,1998.51859230001,1998.5264487999957,1998.5264487999957,1998.5264487999957,1998.5264487999957,1998.5264487999957,1998.5264487999957,2010.7603672000114,['r'],0,[12.225301200000104],[None],2010.7612001000089,2010.7761937999749,2010.7761937999749,2010.7761937999749,2012.193024599983,3,1.4161062000202946,3,1.4161062000202946,,,,,,sub98_AB,001,2026-01-30_16h57.35.850,recognitionstage,,2025.1.1,59.95732239496839,2026-01-30 16h58.18.936666 +0530,
,,,39,39,0,24,frames\Vid24_BB_T.png,frames\Vid24_L.png,['r'],1,[7.4594823000370525],[None],4,1.5837054000003263,,,,,0,39,39,23,2012.2283003999619,,23,Male,Right handed,Normal,,,,,,,,,,,,,,,,,,,,,,,,,,,,,,,,,,,,,,,,2012.205117799982,2012.2283003999619,2012.2283003999619,2012.2283003999619,2012.2283003999619,2012.2283003999619,2012.2283003999619,2019.694033399981,['r'],1,[7.4594823000370525],[None],2019.6948277999763,2019.7099305000156,2019.7099305000156,2019.7099305000156,2021.293176600011,4,1.5837054000003263,4,1.5837054000003263,,,,,,sub98_AB,001,2026-01-30_16h57.35.850,recognitionstage,,2025.1.1,59.95732239496839,2026-01-30 16h58.18.936666 +0530,
,,,,,,,,,,,,,,,,,,,,,,,,,23,Male,Right handed,Normal,,,,,,,,,,,,,,,,,,,,,,,,,,,,,,,,,,,,,,,,,,,,,,,,,,,,,,,,,,,,,2021.2932716999785,2021.3104277999955,2021.3104277999955,2041.2936670999625,None,sub98_AB,001,2026-01-30_16h57.35.850,recognitionstage,,2025.1.1,59.95732239496839,2026-01-30 16h58.18.936666 +0530,
